cue_file,flanker,pos,correct,fix1,cue_time,stimStart,practice.thisRepN,practice.thisTrialN,practice.thisN,practice.thisIndex,trials_2.thisRepN,trials_2.thisTrialN,trials_2.thisN,trials_2.thisIndex,trials.thisRepN,trials.thisTrialN,trials.thisN,trials.thisIndex,postFix,instr_1.started,instr_1.stopped,image.started,image.stopped,instr_2.started,instr_2.stopped,image_2_1.started,image_2_1.stopped,image_2_2.started,image_2_2.stopped,text.started,text.stopped,image_3.started,image_3.stopped,instr_4.started,instr_4.stopped,image_4.started,image_4.stopped,pract_instr.started,pract_instr.stopped,fix_1.started,fix_1.stopped,pract_warning.started,pract_warning.stopped,fix_2.started,fix_2.stopped,pract_target.started,pract_target.stopped,pract_resp.keys,pract_resp.corr,pract_resp.rt,pract_resp.started,pract_resp.stopped,text_3.started,text_3.stopped,practice_res.started,practice_res.stopped,key_resp_6.keys,key_resp_6.rt,key_resp_6.started,key_resp_6.stopped,text_5.started,text_5.stopped,key_resp_7.keys,key_resp_7.rt,key_resp_7.started,key_resp_7.stopped,fixation_1.started,fixation_1.stopped,warning.started,warning.stopped,fixation_2.started,fixation_2.stopped,target.started,target.stopped,response.keys,response.corr,response.started,response.stopped,participant,date,expName,psychopyVersion,frameRate,
ANT_images/center.png,ANT_images/neu_l.png,0.25,e,1.1,0.1,1.6,0,0,0,7,,,,,,,,,,13.141554199974053,None,13.141554199974053,None,13.87401879997924,None,13.87401879997924,None,13.87401879997924,None,14.323661500005983,None,14.323661500005983,None,15.488322899967898,None,15.488322899967898,None,16.29685129999416,None,17.678368100023363,18.769929700007197,18.762427299981937,18.96772889996646,18.96772889996646,19.372354299994186,19.372354299994186,None,e,1,0.6489175999886356,19.174561300023925,None,19.88583679997828,None,,,,,,,,,,,,,,,,,,,,,,,,,,2020_Jul_09_0652,ANT,2020.1.3,59.963074736634844,
ANT_images/up.png,ANT_images/cong_l.png,0.25,e,1.5,0.1,2.0,0,1,1,15,,,,,,,,,,,,,,,,,,,,,,,,,,,,,,20.46589120000135,21.974318100023083,21.944684399990365,22.058261699974537,22.058261699974537,22.45550809998531,22.45550809998531,None,e,1,0.44827920000534505,22.44106360001024,None,22.90459990000818,None,,,,,,,,,,,,,,,,,,,,,,,,,,2020_Jul_09_0652,ANT,2020.1.3,59.963074736634844,
ANT_images/center.png,ANT_images/incong_r.png,0.25,i,0.4,0.1,0.9,0,2,2,23,,,,,,,,,,,,,,,,,,,,,,,,,,,,,,23.485832099977415,23.890950799977873,23.877860600012355,23.99144840001827,23.99144840001827,24.388927899999544,24.388927899999544,None,i,1,0.5321954000391997,24.374582799966447,None,24.921535199973732,None,,,,,,,,,,,,,,,,,,,,,,,,,,2020_Jul_09_0652,ANT,2020.1.3,59.963074736634844,
ANT_images/none.png,ANT_images/neu_r.png,0.25,i,0.1,0.0,0.5,0,3,3,21,,,,,,,,,,,,,,,,,,,,,,,,,,,,,,25.504525399999693,25.607873999979347,25.594838999968488,25.594838999968488,25.594838999968488,26.005605500016827,26.005605500016827,None,i,1,0.49890369997592643,25.99124020000454,None,26.50483809999423,None,,,,,,,,,,,,,,,,,,,,,,,,,,2020_Jul_09_0652,ANT,2020.1.3,59.963074736634844,
ANT_images/double.png,ANT_images/neu_r.png,-0.25,i,0.7,0.1,1.2,0,4,4,10,,,,,,,,,,,,,,,,,,,,,,,,,,,,,,27.08664290001616,27.790622200001962,27.777698000019882,27.891679599997588,27.891679599997588,28.288976899988484,28.288976899988484,None,i,1,0.5323272999958135,28.274435299972538,None,28.82153879996622,None,,,,,,,,,,,,,,,,,,,,,,,,,,2020_Jul_09_0652,ANT,2020.1.3,59.963074736634844,
ANT_images/up.png,ANT_images/neu_l.png,0.25,e,1.4,0.1,1.9,0,5,5,16,,,,,,,,,,,,,,,,,,,,,,,,,,,,,,29.417184500023723,30.824352299969178,30.81127629999537,30.92497860000003,30.92497860000003,31.32214160001604,31.32214160001604,None,e,1,0.43208939995383844,31.307848699972965,None,31.75493140000617,None,,,,,,,,,,,,,,,,,,,,,,,,,,2020_Jul_09_0652,ANT,2020.1.3,59.963074736634844,
ANT_images/none.png,ANT_images/cong_r.png,0.25,i,0.1,0.0,0.5,0,6,6,4,,,,,,,,,,,,,,,,,,,,,,,,,,,,,,32.34717429999728,32.457702599989716,32.4448128999793,32.4448128999793,32.4448128999793,32.85545739997178,32.85545739997178,None,i,1,0.6487129000015557,32.84116619999986,None,33.504851199977566,None,,,,,,,,,,,,,,,,,,,,,,,,,,2020_Jul_09_0652,ANT,2020.1.3,59.963074736634844,
ANT_images/center.png,ANT_images/cong_r.png,0.25,i,1.4,0.1,1.9,0,7,7,8,,,,,,,,,,,,,,,,,,,,,,,,,,,,,,34.090088700002525,35.491057400009595,35.477820299973246,35.59171690000221,35.59171690000221,35.98881830001483,35.98881830001483,None,i,1,0.4656320000067353,35.97437060001539,None,36.454707900003996,None,,,,,,,,,,,,,,,,,,,,,,,,,,2020_Jul_09_0652,ANT,2020.1.3,59.963074736634844,
ANT_images/center.png,ANT_images/incong_l.png,-0.25,e,1.3,0.1,1.8000000000000003,0,8,8,22,,,,,,,,,,,,,,,,,,,,,,,,,,,,,,37.04723829997238,38.357318399997894,38.344240200007334,38.4578244999866,38.4578244999866,38.85563960002037,38.85563960002037,None,e,1,0.6820243000402115,38.841176000016276,None,39.53789159998996,None,,,,,,,,,,,,,,,,,,,,,,,,,,2020_Jul_09_0652,ANT,2020.1.3,59.963074736634844,
ANT_images/none.png,ANT_images/cong_r.png,-0.25,i,0.1,0.0,0.5,0,9,9,3,,,,,,,,,,,,,,,,,,,,,,,,,,,,,,40.12443640001584,40.224329599994235,40.21135900000809,40.21135900000809,40.21135900000809,40.62212740001269,40.62212740001269,None,i,1,0.46534300001803786,40.60783320001792,None,41.088011700019706,None,,,,,,,,,,,,,,,,,,,,,,,,,,2020_Jul_09_0652,ANT,2020.1.3,59.963074736634844,
ANT_images/center.png,ANT_images/neu_r.png,0.25,i,1.0,0.1,1.5,0,10,10,9,,,,,,,,,,,,,,,,,,,,,,,,,,,,,,41.665904099994805,42.67433569999412,42.6445090000052,42.758197300019674,42.758197300019674,43.155347599997185,43.155347599997185,None,i,1,0.4488112000399269,43.14111079997383,None,43.60464299999876,None,,,,,,,,,,,,,,,,,,,,,,,,,,2020_Jul_09_0652,ANT,2020.1.3,59.963074736634844,
ANT_images/double.png,ANT_images/incong_l.png,-0.25,e,1.5,0.1,2.0,0,11,11,12,,,,,,,,,,,,,,,,,,,,,,,,,,,,,,44.192147199995816,45.70758460002253,45.69466159999138,45.80798440001672,45.80798440001672,46.20541499997489,46.20541499997489,None,e,1,0.56528859998798,46.191138399997726,None,46.77143789996626,None,,,,,,,,,,,,,,,,,,,,,,,,,,2020_Jul_09_0652,ANT,2020.1.3,59.963074736634844,
ANT_images/down.png,ANT_images/cong_l.png,-0.25,e,1.2,0.1,1.7000000000000002,0,12,12,18,,,,,,,,,,,,,,,,,,,,,,,,,,,,,,47.35966610000469,48.57430400000885,48.561083399981726,48.67476109997369,48.67476109997369,49.072128999978304,49.072128999978304,None,e,1,0.5154099999926984,49.057733799971174,None,49.588029799982905,None,,,,,,,,,,,,,,,,,,,,,,,,,,2020_Jul_09_0652,ANT,2020.1.3,59.963074736634844,
ANT_images/double.png,ANT_images/neu_r.png,0.25,i,1.2,0.1,1.7000000000000002,0,13,13,14,,,,,,,,,,,,,,,,,,,,,,,,,,,,,,50.179971600009594,51.39084339997498,51.37790690001566,51.49153629998909,51.49153629998909,51.88876659999369,51.88876659999369,None,i,1,0.43202690000180155,51.8743506000028,None,52.32146810000995,None,,,,,,,,,,,,,,,,,,,,,,,,,,2020_Jul_09_0652,ANT,2020.1.3,59.963074736634844,
ANT_images/center.png,ANT_images/neu_l.png,-0.25,e,0.8,0.1,1.3,0,14,14,5,,,,,,,,,,,,,,,,,,,,,,,,,,,,,,52.91576709999936,53.72382299997844,53.69392599997809,53.80770040000789,53.80770040000789,54.2049925000174,54.2049925000174,None,e,1,0.44832780002616346,54.19053530000383,None,54.654435799981,None,,,,,,,,,,,,,,,,,,,,,,,,,,2020_Jul_09_0652,ANT,2020.1.3,59.963074736634844,
ANT_images/none.png,ANT_images/cong_l.png,-0.25,e,0.1,0.0,0.5,0,15,15,0,,,,,,,,,,,,,,,,,,,,,,,,,,,,,,55.23965780000435,55.340678000007756,55.327885399980005,55.327885399980005,55.327885399980005,55.738631599990185,55.738631599990185,None,e,1,0.5653868999797851,55.72439879999729,None,56.30454599997029,None,,,,,,,,,,,,,,,,,,,,,,,,,,2020_Jul_09_0652,ANT,2020.1.3,59.963074736634844,
ANT_images/none.png,ANT_images/cong_l.png,0.25,e,0.1,0.0,0.5,0,16,16,2,,,,,,,,,,,,,,,,,,,,,,,,,,,,,,56.88993020000635,56.99080809997395,56.97778329998255,56.97778329998255,56.97778329998255,57.3869335000054,57.3869335000054,None,e,1,0.5331073999986984,57.37346350000007,None,57.92117290000897,None,,,,,,,,,,,,,,,,,,,,,,,,,,2020_Jul_09_0652,ANT,2020.1.3,59.963074736634844,
ANT_images/down.png,ANT_images/incong_l.png,-0.25,e,1.3,0.1,1.8000000000000003,0,17,17,19,,,,,,,,,,,,,,,,,,,,,,,,,,,,,,58.50134939997224,59.80744980002055,59.794589500001166,59.90809779998381,59.90809779998381,60.30531089997385,60.30531089997385,None,e,1,0.548448899993673,60.29117460001726,None,60.85464380000485,None,,,,,,,,,,,,,,,,,,,,,,,,,,2020_Jul_09_0652,ANT,2020.1.3,59.963074736634844,
ANT_images/down.png,ANT_images/incong_r.png,-0.25,i,1.0,0.1,1.5,0,18,18,20,,,,,,,,,,,,,,,,,,,,,,,,,,,,,,61.44239400001243,62.457512599998154,62.44456119998358,62.55798350000987,62.55798350000987,62.95531390001997,62.95531390001997,None,i,1,0.6152128999819979,62.941061999998055,None,63.571380499983206,None,,,,,,,,,,,,,,,,,,,,,,,,,,2020_Jul_09_0652,ANT,2020.1.3,59.963074736634844,
ANT_images/none.png,ANT_images/incong_r.png,0.25,i,0.1,0.0,0.5,0,19,19,1,,,,,,,,,,,,,,,,,,,,,,,,,,,,,,64.17068839998683,64.27408419997664,64.26106150000123,64.26106150000123,64.26106150000123,64.6718838000088,64.6718838000088,None,i,1,0.5333561000297777,64.65750719996868,None,65.20450609998079,None,,,,,,,,,,,,,,,,,,,,,,,,,,2020_Jul_09_0652,ANT,2020.1.3,59.963074736634844,
ANT_images/double.png,ANT_images/cong_r.png,0.25,i,1.3,0.1,1.8000000000000003,0,20,20,13,,,,,,,,,,,,,,,,,,,,,,,,,,,,,,65.79682260000845,67.10733159998199,67.09446529997513,67.20808989997022,67.20808989997022,67.60508549999213,67.60508549999213,None,i,1,0.46608179999748245,67.5910638999776,None,68.07119479996618,None,,,,,,,,,,,,,,,,,,,,,,,,,,2020_Jul_09_0652,ANT,2020.1.3,59.963074736634844,
ANT_images/up.png,ANT_images/incong_r.png,0.25,i,0.9,0.1,1.4,0,21,21,17,,,,,,,,,,,,,,,,,,,,,,,,,,,,,,68.65888820000691,69.57362809998449,69.56057269999292,69.67419170000358,69.67419170000358,70.07147570000961,70.07147570000961,None,i,1,0.5171033999649808,70.05717029998777,None,70.58744019997539,None,,,,,,,,,,,,,,,,,,,,,,,,,,2020_Jul_09_0652,ANT,2020.1.3,59.963074736634844,
ANT_images/double.png,ANT_images/incong_r.png,-0.25,i,1.6,0.1,2.1,0,22,22,11,,,,,,,,,,,,,,,,,,,,,,,,,,,,,,71.17178279999644,72.77404739998747,72.76092849997804,72.87461300002178,72.87461300002178,73.27193539997097,73.27193539997097,None,i,1,0.565532400039956,73.25745510001434,None,73.83783510001376,None,,,,,,,,,,,,,,,,,,,,,,,,,,2020_Jul_09_0652,ANT,2020.1.3,59.963074736634844,
ANT_images/center.png,ANT_images/neu_r.png,0.25,i,1.0,0.1,1.5,0,23,23,6,,,,,,,,,,,,,,,,,,,,,,,,,,,,,,74.42643829999724,75.44023180002114,75.42706369998632,75.54064620001009,75.54064620001009,75.93826450000051,75.93826450000051,None,i,1,0.44760709995171055,75.92404539999552,None,76.38728759996593,None,,,,,,,,,,,,,,,,,,,,,,,,,,2020_Jul_09_0652,ANT,2020.1.3,59.963074736634844,
,,,,,,,,,,,,,,,,,,,,,,,,,,,,,,,,,,,,,,,,,,,,,,,,,,,,,,,76.78759839996928,None,space,0.7679679999710061,76.78759839996928,None,,,,,,,,,,,,,,,,,,,,2020_Jul_09_0652,ANT,2020.1.3,59.963074736634844,
,,,,,,,,,,,,,,,,,,,,,,,,,,,,,,,,,,,,,,,,,,,,,,,,,,,,,,,,,,,,,77.5712728999788,None,space,0.5348640000447631,77.5712728999788,None,,,,,,,,,,,,,,2020_Jul_09_0652,ANT,2020.1.3,59.963074736634844,
,,,,,,,,,,,,,,,,,,,,,,,,,,,,,,,,,,,,,,,,,,,,,,,,,,,,,,,,,,,,,,,,,,,78.3476854999899,79.34170119999908,79.33434329996817,79.56842239998514,79.56842239998514,79.97177820000798,79.97177820000798,None,None,0,78.3476854999899,80.05503280000994,,,,,,
