cue_file,flanker,pos,correct,fix1,cue_time,stimStart,postFix,practice.thisRepN,practice.thisTrialN,practice.thisN,practice.thisIndex,trials_2.thisRepN,trials_2.thisTrialN,trials_2.thisN,trials_2.thisIndex,trials.thisRepN,trials.thisTrialN,trials.thisN,trials.thisIndex,instr_1.started,instr_1.stopped,image.started,image.stopped,instr_2.started,instr_2.stopped,image_2_1.started,image_2_1.stopped,image_2_2.started,image_2_2.stopped,text.started,text.stopped,image_3.started,image_3.stopped,instr_4.started,instr_4.stopped,image_4.started,image_4.stopped,pract_instr.started,pract_instr.stopped,fix_1.started,fix_1.stopped,pract_warning.started,pract_warning.stopped,fix_2.started,fix_2.stopped,pract_target.started,pract_target.stopped,pract_resp.keys,pract_resp.corr,pract_resp.rt,pract_resp.started,pract_resp.stopped,text_3.started,text_3.stopped,practice_res.started,practice_res.stopped,key_resp_6.keys,key_resp_6.rt,key_resp_6.started,key_resp_6.stopped,text_5.started,text_5.stopped,key_resp_7.keys,key_resp_7.rt,key_resp_7.started,key_resp_7.stopped,fixation_1.started,fixation_1.stopped,warning.started,warning.stopped,fixation_2.started,fixation_2.stopped,target.started,target.stopped,response.keys,response.corr,response.rt,response.started,response.stopped,postfix.started,postfix.stopped,participant,date,expName,psychopyVersion,frameRate,
ANT_images/none.png,ANT_images/neu_r.png,0.25,i,0.1,0.0,0.5,,0,0,0,21,,,,,,,,,10.19205209997017,None,10.19205209997017,None,11.014069599972572,None,11.014069599972572,None,11.014069599972572,None,11.460695599962492,None,11.460695599962492,None,11.880391400016379,None,11.880391400016379,None,12.257492400007322,None,13.011133899970446,13.110886399983428,13.103305600001477,13.103305600001477,13.103305600001477,13.51900560001377,13.51900560001377,None,i,1,1.6827999000088312,13.422674799978267,None,15.142051699978765,None,,,,,,,,,,,,,,,,,,,,,,,,,,,,,2020_Jul_09_0730,ANT,2020.1.3,59.97148955320342,
ANT_images/none.png,ANT_images/cong_l.png,-0.25,e,0.1,0.0,0.5,,0,1,1,0,,,,,,,,,,,,,,,,,,,,,,,,,,,,,15.671994799980894,15.772860299970489,15.759660599986091,15.759660599986091,15.759660599986091,16.170613299997058,16.170613299997058,None,e,1,0.5656587000121363,16.15610859997105,None,16.736474699981045,None,,,,,,,,,,,,,,,,,,,,,,,,,,,,,2020_Jul_09_0730,ANT,2020.1.3,59.97148955320342,
ANT_images/center.png,ANT_images/neu_r.png,0.25,i,1.0,0.1,1.5,,0,2,2,6,,,,,,,,,,,,,,,,,,,,,,,,,,,,,17.250525099982042,18.256062100001145,18.24464380001882,18.356688699976075,18.356688699976075,18.75350300001446,18.75350300001446,None,i,1,0.4155144999967888,18.7395961000002,None,19.169804800010752,None,,,,,,,,,,,,,,,,,,,,,,,,,,,,,2020_Jul_09_0730,ANT,2020.1.3,59.97148955320342,
ANT_images/double.png,ANT_images/cong_r.png,0.25,i,1.3,0.1,1.8000000000000003,,0,3,3,13,,,,,,,,,,,,,,,,,,,,,,,,,,,,,19.682940099970438,20.9893427999923,20.97609690000536,21.08951399999205,21.08951399999205,21.487056299985852,21.487056299985852,None,i,1,0.41598079999675974,21.4727454999811,None,21.903114999993704,None,,,,,,,,,,,,,,,,,,,,,,,,,,,,,2020_Jul_09_0730,ANT,2020.1.3,59.97148955320342,
ANT_images/center.png,ANT_images/neu_l.png,0.25,e,1.1,0.1,1.6,,0,4,4,7,,,,,,,,,,,,,,,,,,,,,,,,,,,,,22.41283059999114,23.52255359996343,23.49309289996745,23.606610999966506,23.606610999966506,24.003890399995726,24.003890399995726,None,e,1,0.43189569999231026,23.989728300017305,None,24.436410199967213,None,,,,,,,,,,,,,,,,,,,,,,,,,,,,,2020_Jul_09_0730,ANT,2020.1.3,59.97148955320342,
ANT_images/center.png,ANT_images/neu_l.png,-0.25,e,0.8,0.1,1.3,,0,5,5,5,,,,,,,,,,,,,,,,,,,,,,,,,,,,,24.948464999964926,25.756013499980327,25.743219700001646,25.85702220001258,25.85702220001258,26.270538199984003,26.270538199984003,None,e,1,0.5657602999708615,26.23933609999949,None,26.819727799971588,None,,,,,,,,,,,,,,,,,,,,,,,,,,,,,2020_Jul_09_0730,ANT,2020.1.3,59.97148955320342,
ANT_images/up.png,ANT_images/cong_l.png,0.25,e,1.5,0.1,2.0,,0,6,6,15,,,,,,,,,,,,,,,,,,,,,,,,,,,,,27.332139600010123,28.839301700005308,28.826298100000713,28.939961399999447,28.939961399999447,29.33721520000836,29.33721520000836,None,e,1,0.6822893000207841,29.32296660001157,None,30.01964949996909,None,,,,,,,,,,,,,,,,,,,,,,,,,,,,,2020_Jul_09_0730,ANT,2020.1.3,59.97148955320342,
ANT_images/double.png,ANT_images/neu_r.png,-0.25,i,0.7,0.1,1.2,,0,7,7,10,,,,,,,,,,,,,,,,,,,,,,,,,,,,,30.52636189997429,31.23922519996995,31.226180400000885,31.339771699975245,31.339771699975245,31.737144899962004,31.737144899962004,None,i,1,0.4654424000182189,31.722874199971557,None,32.20287829998415,None,,,,,,,,,,,,,,,,,,,,,,,,,,,,,2020_Jul_09_0730,ANT,2020.1.3,59.97148955320342,
ANT_images/center.png,ANT_images/neu_r.png,0.25,i,1.0,0.1,1.5,,0,8,8,9,,,,,,,,,,,,,,,,,,,,,,,,,,,,,32.712768299970776,33.72266889997991,33.6930933999829,33.80667219997849,33.80667219997849,34.203657699981704,34.203657699981704,None,i,1,0.4324706000043079,34.18956949998392,None,34.63636950001819,None,,,,,,,,,,,,,,,,,,,,,,,,,,,,,2020_Jul_09_0730,ANT,2020.1.3,59.97148955320342,
ANT_images/down.png,ANT_images/incong_l.png,-0.25,e,1.3,0.1,1.8000000000000003,,0,9,9,19,,,,,,,,,,,,,,,,,,,,,,,,,,,,,35.14238099998329,36.45560459996341,36.44238719996065,36.55615710001439,36.55615710001439,36.9532259000116,36.9532259000116,None,e,1,0.63238409999758,36.939032699970994,None,37.58655900001759,None,,,,,,,,,,,,,,,,,,,,,,,,,,,,,2020_Jul_09_0730,ANT,2020.1.3,59.97148955320342,
ANT_images/double.png,ANT_images/neu_r.png,0.25,i,1.2,0.1,1.7000000000000002,,0,10,10,14,,,,,,,,,,,,,,,,,,,,,,,,,,,,,38.09355389996199,39.30609269998968,39.29289969999809,39.40613770001801,39.40613770001801,39.80351349996636,39.80351349996636,None,i,1,0.3993507999693975,39.78932009998243,None,40.20285060000606,None,,,,,,,,,,,,,,,,,,,,,,,,,,,,,2020_Jul_09_0730,ANT,2020.1.3,59.97148955320342,
ANT_images/center.png,ANT_images/incong_l.png,-0.25,e,1.3,0.1,1.8000000000000003,,0,11,11,22,,,,,,,,,,,,,,,,,,,,,,,,,,,,,40.7102053000126,42.02266399998916,42.00938609999139,42.12322199996561,42.12322199996561,42.520297100010794,42.520297100010794,None,e,1,0.5652924999594688,42.506138400000054,None,43.08621089998633,None,,,,,,,,,,,,,,,,,,,,,,,,,,,,,2020_Jul_09_0730,ANT,2020.1.3,59.97148955320342,
ANT_images/up.png,ANT_images/neu_l.png,0.25,e,1.4,0.1,1.9,,0,12,12,16,,,,,,,,,,,,,,,,,,,,,,,,,,,,,43.59818279999308,45.00582179997582,44.99289489997318,45.10647220001556,45.10647220001556,45.503603699966334,45.503603699966334,None,e,1,0.48188289999961853,45.489590999961365,None,45.986137499974575,None,,,,,,,,,,,,,,,,,,,,,,,,,,,,,2020_Jul_09_0730,ANT,2020.1.3,59.97148955320342,
ANT_images/up.png,ANT_images/incong_r.png,0.25,i,0.9,0.1,1.4,,0,13,13,17,,,,,,,,,,,,,,,,,,,,,,,,,,,,,46.47596389998216,47.389128100010566,47.37588979996508,47.489698399964254,47.489698399964254,47.88688170001842,47.88688170001842,None,i,1,0.549229700001888,47.87253260001307,None,48.4363404000178,None,,,,,,,,,,,,,,,,,,,,,,,,,,,,,2020_Jul_09_0730,ANT,2020.1.3,59.97148955320342,
ANT_images/none.png,ANT_images/cong_l.png,0.25,e,0.1,0.0,0.5,,0,14,14,2,,,,,,,,,,,,,,,,,,,,,,,,,,,,,48.935574600007385,49.03913879999891,49.02623550000135,49.02623550000135,49.02623550000135,49.43696490000002,49.43696490000002,None,e,1,0.6821156999794766,49.42262949998258,None,50.11943469999824,None,,,,,,,,,,,,,,,,,,,,,,,,,,,,,2020_Jul_09_0730,ANT,2020.1.3,59.97148955320342,
ANT_images/down.png,ANT_images/incong_r.png,-0.25,i,1.0,0.1,1.5,,0,15,15,20,,,,,,,,,,,,,,,,,,,,,,,,,,,,,50.629397900018375,51.639198199962266,51.60947229998419,51.72290890000295,51.72290890000295,52.12033110001357,52.12033110001357,None,i,1,0.44761600001947954,52.1061227999744,None,52.569312800012995,None,,,,,,,,,,,,,,,,,,,,,,,,,,,,,2020_Jul_09_0730,ANT,2020.1.3,59.97148955320342,
ANT_images/down.png,ANT_images/cong_l.png,-0.25,e,1.2,0.1,1.7000000000000002,,0,16,16,18,,,,,,,,,,,,,,,,,,,,,,,,,,,,,53.06756379996659,54.272499799961224,54.2593231999781,54.372748899972066,54.372748899972066,54.77036709996173,54.77036709996173,None,e,1,0.46559649996925145,54.755895300011616,None,55.23630409996258,None,,,,,,,,,,,,,,,,,,,,,,,,,,,,,2020_Jul_09_0730,ANT,2020.1.3,59.97148955320342,
ANT_images/none.png,ANT_images/incong_r.png,0.25,i,0.1,0.0,0.5,,0,17,17,1,,,,,,,,,,,,,,,,,,,,,,,,,,,,,55.74346229998628,55.85580029996345,55.84260450000875,55.84260450000875,55.84260450000875,56.25371429999359,56.25371429999359,None,i,1,0.7656581999617629,56.239062000007834,None,57.01938229997177,None,,,,,,,,,,,,,,,,,,,,,,,,,,,,,2020_Jul_09_0730,ANT,2020.1.3,59.97148955320342,
ANT_images/center.png,ANT_images/cong_r.png,0.25,i,1.4,0.1,1.9,,0,18,18,8,,,,,,,,,,,,,,,,,,,,,,,,,,,,,57.529364999965765,58.938934899982996,58.909128699975554,59.02305209997576,59.02305209997576,59.42016809998313,59.42016809998313,None,i,1,0.4154065999900922,59.40585079998709,None,59.83616860001348,None,,,,,,,,,,,,,,,,,,,,,,,,,,,,,2020_Jul_09_0730,ANT,2020.1.3,59.97148955320342,
ANT_images/none.png,ANT_images/cong_r.png,-0.25,i,0.1,0.0,0.5,,0,19,19,3,,,,,,,,,,,,,,,,,,,,,,,,,,,,,60.34165319998283,60.45581959997071,60.44285069999751,60.44285069999751,60.44285069999751,60.85354139999254,60.85354139999254,None,i,1,0.6144249999779277,60.83929570001783,None,61.4695756000001,None,,,,,,,,,,,,,,,,,,,,,,,,,,,,,2020_Jul_09_0730,ANT,2020.1.3,59.97148955320342,
ANT_images/double.png,ANT_images/incong_r.png,-0.25,i,1.6,0.1,2.1,,0,20,20,11,,,,,,,,,,,,,,,,,,,,,,,,,,,,,61.976259399962146,63.58892959996592,63.57601939997403,63.689652999979444,63.689652999979444,64.08694509998895,64.08694509998895,None,i,1,0.5986883000005037,64.07267369999317,None,64.68616949999705,None,,,,,,,,,,,,,,,,,,,,,,,,,,,,,2020_Jul_09_0730,ANT,2020.1.3,59.97148955320342,
ANT_images/center.png,ANT_images/incong_r.png,0.25,i,0.4,0.1,0.9,,0,21,21,23,,,,,,,,,,,,,,,,,,,,,,,,,,,,,65.19671419996303,65.60581969999475,65.57606280001346,65.68964629998663,65.68964629998663,66.08687409997219,66.08687409997219,None,i,1,0.7321536999661475,66.07264540001052,None,66.81937689997721,None,,,,,,,,,,,,,,,,,,,,,,,,,,,,,2020_Jul_09_0730,ANT,2020.1.3,59.97148955320342,
ANT_images/double.png,ANT_images/incong_l.png,-0.25,e,1.5,0.1,2.0,,0,22,22,12,,,,,,,,,,,,,,,,,,,,,,,,,,,,,67.34023359999992,68.85558819997823,68.84217819996411,68.95592400000896,68.95592400000896,69.35353590000886,69.35353590000886,None,e,1,0.4985199000220746,69.33934349997435,None,69.85287399997469,None,,,,,,,,,,,,,,,,,,,,,,,,,,,,,2020_Jul_09_0730,ANT,2020.1.3,59.97148955320342,
ANT_images/none.png,ANT_images/cong_r.png,0.25,i,0.1,0.0,0.5,,0,23,23,4,,,,,,,,,,,,,,,,,,,,,,,,,,,,,70.35712950001471,70.47225669998443,70.45924900000682,70.45924900000682,70.45924900000682,70.87019950000104,70.87019950000104,None,i,1,0.5143302000360563,70.85601639997913,None,71.38596350001171,None,,,,,,,,,,,,,,,,,,,,,,,,,,,,,2020_Jul_09_0730,ANT,2020.1.3,59.97148955320342,
,,,,,,,,,,,,,,,,,,,,,,,,,,,,,,,,,,,,,,,,,,,,,,,,,,,,,,,71.7861794999917,None,space,0.7843806000309996,71.7861794999917,None,,,,,,,,,,,,,,,,,,,,,,,2020_Jul_09_0730,ANT,2020.1.3,59.97148955320342,
,,,,,,,,,,,,,,,,,,,,,,,,,,,,,,,,,,,,,,,,,,,,,,,,,,,,,,,,,,,,,72.58639399998356,None,space,0.5198751999996603,72.58639399998356,None,,,,,,,,,,,,,,,,,2020_Jul_09_0730,ANT,2020.1.3,59.97148955320342,
ANT_images/double.png,ANT_images/neu_l.png,-0.25,e,0.5,0.1,1.0,1.2,,,,,0,0,0,0,0,0,0,30,,,,,,,,,,,,,,,,,,,,,,,,,,,,,,,,,,,,,,,,,,,,,,,,73.28504270000849,73.77565999998478,73.7581410999992,73.95869699999457,73.95869699999457,74.37031520000892,74.37031520000892,None,e,1,1.5021222999785095,73.28504270000849,None,74.88558229996124,None,,2020_Jul_09_0730,ANT,2020.1.3,59.97148955320342,
ANT_images/double.png,ANT_images/neu_r.png,0.25,i,1.2,0.1,1.7000000000000002,0.5,,,,,0,0,0,0,0,1,1,25,,,,,,,,,,,,,,,,,,,,,,,,,,,,,,,,,,,,,,,,,,,,,,,,76.17097300000023,77.37216029997217,77.35956989997067,77.47259159997338,77.47259159997338,77.86984060000395,77.86984060000395,None,None,0,,76.17097300000023,77.86984060000395,79.57261219999054,None,,2020_Jul_09_0730,ANT,2020.1.3,59.97148955320342,
ANT_images/double.png,ANT_images/cong_r.png,-0.25,i,1.1,0.1,1.6,0.5999999999999999,,,,,0,0,0,0,0,2,2,33,,,,,,,,,,,,,,,,,,,,,,,,,,,,,,,,,,,,,,,,,,,,,,,,80.15309310000157,81.25567210000008,81.24238680000417,81.35578759998316,81.35578759998316,81.75323530001333,81.75323530001333,None,None,0,,80.15309310000157,81.85325280000689,83.45566139998846,None,,2020_Jul_09_0730,ANT,2020.1.3,59.97148955320342,
ANT_images/none.png,ANT_images/neu_r.png,0.25,i,0.1,0.0,0.5,1.5999999999999999,,,,,0,0,0,0,0,3,3,1,,,,,,,,,,,,,,,,,,,,,,,,,,,,,,,,,,,,,,,,,,,,,,,,84.12115379999159,84.22225099999923,84.20867969997926,84.20867969997926,84.20867969997926,84.61984240001766,84.61984240001766,None,i,1,1.1166441999957897,84.12115379999159,None,85.25558379996801,None,,2020_Jul_09_0730,ANT,2020.1.3,59.97148955320342,
ANT_images/up.png,ANT_images/neu_r.png,0.25,i,0.8,0.1,1.3,0.8999999999999999,,,,,0,0,0,0,0,4,4,37,,,,,,,,,,,,,,,,,,,,,,,,,,,,,,,,,,,,,,,,,,,,,,,,86.93405199999688,87.73885179997887,87.72596919996431,87.83912789996248,87.83912789996248,88.2367800999782,88.2367800999782,None,None,0,,86.93405199999688,88.63665259996196,89.93870269996114,None,,2020_Jul_09_0730,ANT,2020.1.3,59.97148955320342,
ANT_images/up.png,ANT_images/cong_r.png,0.25,i,1.4,0.1,1.9,0.30000000000000004,,,,,0,0,0,0,0,5,5,39,,,,,,,,,,,,,,,,,,,,,,,,,,,,,,,,,,,,,,,,,,,,,,,,90.91732519998914,92.3222267999663,92.30916689999867,92.4222110999981,92.4222110999981,92.82010399998398,92.82010399998398,None,None,0,,90.91732519998914,92.62240839999868,94.52237449999666,None,,2020_Jul_09_0730,ANT,2020.1.3,59.97148955320342,
ANT_images/none.png,ANT_images/incong_l.png,0.25,e,0.1,0.0,0.5,1.5999999999999999,,,,,0,0,0,0,0,6,6,4,,,,,,,,,,,,,,,,,,,,,,,,,,,,,,,,,,,,,,,,,,,,,,,,94.90285189996939,95.00537389999954,94.99160439998377,94.99160439998377,94.99160439998377,95.40320589998737,95.40320589998737,None,e,1,1.1719238000223413,94.90285189996939,None,96.08888250001473,None,,2020_Jul_09_0730,ANT,2020.1.3,59.97148955320342,
ANT_images/double.png,ANT_images/incong_l.png,-0.25,e,1.5,0.1,2.0,0.19999999999999996,,,,,0,0,0,0,0,7,7,34,,,,,,,,,,,,,,,,,,,,,,,,,,,,,,,,,,,,,,,,,,,,,,,,97.76747949997662,99.272127299977,99.25889800000004,99.37224409996998,99.37224409996998,99.77001009997912,99.77001009997912,None,None,0,,97.76747949997662,99.47208269999828,101.47238609998021,None,,2020_Jul_09_0730,ANT,2020.1.3,59.97148955320342,
ANT_images/down.png,ANT_images/incong_l.png,-0.25,e,1.3,0.1,1.8000000000000003,0.3999999999999999,,,,,0,0,0,0,0,8,8,46,,,,,,,,,,,,,,,,,,,,,,,,,,,,,,,,,,,,,,,,,,,,,,,,101.73440660000779,103.03886679996504,103.02574969996931,103.1390570999938,103.1390570999938,103.53669919999084,103.53669919999084,None,None,0,,101.73440660000779,103.43893170001684,105.23878740001237,None,,2020_Jul_09_0730,ANT,2020.1.3,59.97148955320342,
ANT_images/none.png,ANT_images/cong_l.png,0.25,e,0.1,0.0,0.5,1.5999999999999999,,,,,0,0,0,0,0,9,9,2,,,,,,,,,,,,,,,,,,,,,,,,,,,,,,,,,,,,,,,,,,,,,,,,105.71730690001277,105.82206530001713,105.80821669998113,105.80821669998113,105.80821669998113,106.21976959996391,106.21976959996391,None,e,1,1.0537251000059769,105.71730690001277,None,106.78867659997195,None,,2020_Jul_09_0730,ANT,2020.1.3,59.97148955320342,
ANT_images/down.png,ANT_images/cong_l.png,-0.25,e,1.2,0.1,1.7000000000000002,0.5,,,,,0,0,0,0,0,10,10,44,,,,,,,,,,,,,,,,,,,,,,,,,,,,,,,,,,,,,,,,,,,,,,,,108.44602119998308,109.65541770000709,109.64244289998896,109.75565140001709,109.75565140001709,110.1531889999751,110.1531889999751,None,None,0,,108.44602119998308,110.1531889999751,111.85548470000504,None,,2020_Jul_09_0730,ANT,2020.1.3,59.97148955320342,
ANT_images/center.png,ANT_images/incong_l.png,0.25,e,0.5,0.1,1.0,1.2,,,,,0,0,0,0,0,11,11,16,,,,,,,,,,,,,,,,,,,,,,,,,,,,,,,,,,,,,,,,,,,,,,,,112.43202149996068,112.93870309996419,112.92558400001144,113.03879839996807,113.03879839996807,113.4363699000096,113.4363699000096,None,e,1,1.5048343000235036,112.43202149996068,None,113.95540119998623,None,,2020_Jul_09_0730,ANT,2020.1.3,59.97148955320342,
ANT_images/center.png,ANT_images/incong_r.png,0.25,i,0.4,0.1,0.9,1.2999999999999998,,,,,0,0,0,0,0,12,12,17,,,,,,,,,,,,,,,,,,,,,,,,,,,,,,,,,,,,,,,,,,,,,,,,115.23187329998473,115.63858199998504,115.62556159996893,115.73904299997957,115.73904299997957,116.1365947999875,116.1365947999875,None,i,1,1.4713537000352517,115.23187329998473,None,116.72176849999232,None,,2020_Jul_09_0730,ANT,2020.1.3,59.97148955320342,
ANT_images/none.png,ANT_images/incong_r.png,0.25,i,0.1,0.0,0.5,1.5999999999999999,,,,,0,0,0,0,0,13,13,5,,,,,,,,,,,,,,,,,,,,,,,,,,,,,,,,,,,,,,,,,,,,,,,,118.09821580001153,118.20526680001058,118.19143479998456,118.19143479998456,118.19143479998456,118.60303579998435,118.60303579998435,None,i,1,1.0393516999902204,118.09821580001153,None,119.15539379999973,None,,2020_Jul_09_0730,ANT,2020.1.3,59.97148955320342,
ANT_images/up.png,ANT_images/cong_l.png,0.25,e,1.5,0.1,2.0,0.19999999999999996,,,,,0,0,0,0,0,14,14,38,,,,,,,,,,,,,,,,,,,,,,,,,,,,,,,,,,,,,,,,,,,,,,,,120.83198069996433,122.3388020999846,122.32526640000287,122.43878670001868,122.43878670001868,122.83636680000927,122.83636680000927,None,None,0,,120.83198069996433,122.53858629998285,124.5385152999661,None,,2020_Jul_09_0730,ANT,2020.1.3,59.97148955320342,
,,,,,,,,,,,,,,,,,,,,,,,,,,,,,,,,,,,,,,,,,,,,,,,,,,,,,,,,,,,,,,,,,,,124.81784159998642,124.92194550001295,124.90842270001303,124.90842270001303,124.90842270001303,None,None,None,e,1,0.2879757999908179,124.81784159998642,None,,,,,,,,
