cue_file,flanker,pos,correct,fix1,cue_time,stimStart,practice.thisRepN,practice.thisTrialN,practice.thisN,practice.thisIndex,trials_2.thisRepN,trials_2.thisTrialN,trials_2.thisN,trials_2.thisIndex,trials.thisRepN,trials.thisTrialN,trials.thisN,trials.thisIndex,instr_1.started,instr_1.stopped,image.started,image.stopped,instr_2.started,instr_2.stopped,image_2_1.started,image_2_1.stopped,image_2_2.started,image_2_2.stopped,text.started,text.stopped,image_3.started,image_3.stopped,instr_4.started,instr_4.stopped,image_4.started,image_4.stopped,pract_instr.started,pract_instr.stopped,fix_1.started,fix_1.stopped,pract_warning.started,pract_warning.stopped,fix_2.started,fix_2.stopped,pract_target.started,pract_target.stopped,pract_resp.keys,pract_resp.corr,pract_resp.rt,pract_resp.started,pract_resp.stopped,text_3.started,text_3.stopped,practice_res.started,practice_res.stopped,key_resp_6.keys,key_resp_6.rt,key_resp_6.started,key_resp_6.stopped,text_5.started,text_5.stopped,key_resp_7.keys,key_resp_7.rt,key_resp_7.started,key_resp_7.stopped,fixation_1.started,fixation_1.stopped,warning.started,warning.stopped,fixation_2.started,fixation_2.stopped,target.started,target.stopped,post_fixation.started,post_fixation.stopped,response.keys,response.corr,response.started,response.stopped,response.rt,participant,date,expName,psychopyVersion,frameRate,
ANT_images/center.png,ANT_images/neu_r.png,0.25,i,1.0,0.1,1.5,0,0,0,6,,,,,,,,,14.420346800005063,None,14.420346800005063,None,15.035872799984645,None,15.035872799984645,None,15.035872799984645,None,15.456791799981147,None,15.456791799981147,None,15.660472899966408,None,15.660472899966408,None,15.981530799996108,None,16.635982499981765,17.643474799988326,17.60672759998124,17.818141299998388,17.818141299998388,18.268118600011803,18.268118600011803,None,e,0,0.9526716000400484,18.010479199991096,None,19.018921399954706,None,,,,,,,,,,,,,,,,,,,,,,,,,,,,,2020_Jul_09_0550,ANT,2020.1.3,59.96911590750591,
ANT_images/none.png,ANT_images/incong_r.png,0.25,i,0.1,0.0,0.5,0,1,1,1,,,,,,,,,,,,,,,,,,,,,,,,,,,,,19.588274399982765,19.693436999979895,19.68032340001082,19.68032340001082,19.68032340001082,20.09102749999147,20.09102749999147,None,i,1,0.5649805999710225,20.076701699988917,None,20.66756529995473,None,,,,,,,,,,,,,,,,,,,,,,,,,,,,,2020_Jul_09_0550,ANT,2020.1.3,59.96911590750591,
ANT_images/none.png,ANT_images/cong_r.png,0.25,i,0.1,0.0,0.5,0,2,2,4,,,,,,,,,,,,,,,,,,,,,,,,,,,,,21.232671800011303,21.34345539996866,21.33046819997253,21.33046819997253,21.33046819997253,21.741464799968526,21.741464799968526,None,i,1,0.46562839997932315,21.72696379997069,None,22.207484799961094,None,,,,,,,,,,,,,,,,,,,,,,,,,,,,,2020_Jul_09_0550,ANT,2020.1.3,59.96911590750591,
ANT_images/double.png,ANT_images/incong_l.png,-0.25,e,1.5,0.1,2.0,0,3,3,12,,,,,,,,,,,,,,,,,,,,,,,,,,,,,22.791727099975105,24.293199600011576,24.27994519995991,24.393731499963906,24.393731499963906,24.79136729997117,24.79136729997117,None,e,1,0.5988327999948524,24.77702619996853,None,25.390741000010166,None,,,,,,,,,,,,,,,,,,,,,,,,,,,,,2020_Jul_09_0550,ANT,2020.1.3,59.96911590750591,
ANT_images/down.png,ANT_images/incong_l.png,-0.25,e,1.3,0.1,1.8000000000000003,0,4,4,19,,,,,,,,,,,,,,,,,,,,,,,,,,,,,25.97942609997699,27.29370129999006,27.28046219999669,27.39412919996539,27.39412919996539,27.791437099978793,27.791437099978793,None,e,1,0.531969300005585,27.777162799960934,None,28.323990200005937,None,,,,,,,,,,,,,,,,,,,,,,,,,,,,,2020_Jul_09_0550,ANT,2020.1.3,59.96911590750591,
ANT_images/center.png,ANT_images/neu_l.png,-0.25,e,0.8,0.1,1.3,0,5,5,5,,,,,,,,,,,,,,,,,,,,,,,,,,,,,28.92243380000582,29.726981799991336,29.714064800005872,29.827562999969814,29.827562999969814,30.224675800011028,30.224675800011028,None,e,1,0.4652111000032164,30.210482999973465,None,30.690432299976237,None,,,,,,,,,,,,,,,,,,,,,,,,,,,,,2020_Jul_09_0550,ANT,2020.1.3,59.96911590750591,
ANT_images/up.png,ANT_images/neu_l.png,0.25,e,1.4,0.1,1.9,0,6,6,16,,,,,,,,,,,,,,,,,,,,,,,,,,,,,31.28154120000545,32.6936185999657,32.68044669996016,32.79392999998527,32.79392999998527,33.19096290000016,33.19096290000016,None,e,1,0.48273170000175014,33.17656359996181,None,33.673917400010396,None,,,,,,,,,,,,,,,,,,,,,,,,,,,,,2020_Jul_09_0550,ANT,2020.1.3,59.96911590750591,
ANT_images/up.png,ANT_images/cong_l.png,0.25,e,1.5,0.1,2.0,0,7,7,15,,,,,,,,,,,,,,,,,,,,,,,,,,,,,34.26029559999006,35.76018219999969,35.74715439998545,35.8605852999608,35.8605852999608,36.2576199999894,36.2576199999894,None,e,1,0.4482268000137992,36.243344599963166,None,36.70688199996948,None,,,,,,,,,,,,,,,,,,,,,,,,,,,,,2020_Jul_09_0550,ANT,2020.1.3,59.96911590750591,
ANT_images/double.png,ANT_images/cong_r.png,0.25,i,1.3,0.1,1.8000000000000003,0,8,8,13,,,,,,,,,,,,,,,,,,,,,,,,,,,,,37.27409899997292,38.576810400001705,38.564027999993414,38.67752099997597,38.67752099997597,39.07453159999568,39.07453159999568,None,i,1,0.4322702999925241,39.0602452000021,None,39.50727619999088,None,,,,,,,,,,,,,,,,,,,,,,,,,,,,,2020_Jul_09_0550,ANT,2020.1.3,59.96911590750591,
ANT_images/down.png,ANT_images/incong_r.png,-0.25,i,1.0,0.1,1.5,0,9,9,20,,,,,,,,,,,,,,,,,,,,,,,,,,,,,40.091389899956994,41.09358029998839,41.080440299992915,41.194106000009924,41.194106000009924,41.59135549998609,41.59135549998609,None,i,1,0.5987509000115097,41.576973099960014,None,42.190495099988766,None,,,,,,,,,,,,,,,,,,,,,,,,,,,,,2020_Jul_09_0550,ANT,2020.1.3,59.96911590750591,
ANT_images/none.png,ANT_images/cong_r.png,-0.25,i,0.1,0.0,0.5,0,10,10,3,,,,,,,,,,,,,,,,,,,,,,,,,,,,,42.77379690000089,42.87688039999921,42.86389749997761,42.86389749997761,42.86389749997761,43.274555399955716,43.274555399955716,None,i,1,0.5823289999971166,43.26018069998827,None,43.857270399981644,None,,,,,,,,,,,,,,,,,,,,,,,,,,,,,2020_Jul_09_0550,ANT,2020.1.3,59.96911590750591,
ANT_images/down.png,ANT_images/cong_l.png,-0.25,e,1.2,0.1,1.7000000000000002,0,11,11,18,,,,,,,,,,,,,,,,,,,,,,,,,,,,,44.44282469997415,45.64357389998622,45.63029919995461,45.743969700008165,45.743969700008165,46.14121549995616,46.14121549995616,None,e,1,0.43226259999210015,46.12695499998517,None,46.57381339999847,None,,,,,,,,,,,,,,,,,,,,,,,,,,,,,2020_Jul_09_0550,ANT,2020.1.3,59.96911590750591,
ANT_images/none.png,ANT_images/neu_r.png,0.25,i,0.1,0.0,0.5,0,12,12,21,,,,,,,,,,,,,,,,,,,,,,,,,,,,,47.165729800006375,47.27677679999033,47.26369319995865,47.26369319995865,47.26369319995865,47.674631399975624,47.674631399975624,None,i,1,0.46566380001604557,47.66011160000926,None,48.14042409998365,None,,,,,,,,,,,,,,,,,,,,,,,,,,,,,2020_Jul_09_0550,ANT,2020.1.3,59.96911590750591,
ANT_images/center.png,ANT_images/cong_r.png,0.25,i,1.4,0.1,1.9,0,13,13,8,,,,,,,,,,,,,,,,,,,,,,,,,,,,,48.72996179998154,50.14352629997302,50.13030359998811,50.24397309997585,50.24397309997585,50.64118919998873,50.64118919998873,None,i,1,0.44872780004516244,50.62686439999379,None,51.09042139997473,None,,,,,,,,,,,,,,,,,,,,,,,,,,,,,2020_Jul_09_0550,ANT,2020.1.3,59.96911590750591,
ANT_images/none.png,ANT_images/cong_l.png,0.25,e,0.1,0.0,0.5,0,14,14,2,,,,,,,,,,,,,,,,,,,,,,,,,,,,,51.681579799973406,51.79302949999692,51.779829300008714,51.779829300008714,51.779829300008714,52.19089149998035,52.19089149998035,None,e,1,0.5649753999896348,52.176454700005706,None,52.75670579995494,None,,,,,,,,,,,,,,,,,,,,,,,,,,,,,2020_Jul_09_0550,ANT,2020.1.3,59.96911590750591,
ANT_images/up.png,ANT_images/incong_r.png,0.25,i,0.9,0.1,1.4,0,15,15,17,,,,,,,,,,,,,,,,,,,,,,,,,,,,,53.33579759998247,54.24349959997926,54.23026469995966,54.34392009995645,54.34392009995645,54.74122109997552,54.74122109997552,None,i,1,0.5487628999981098,54.72689359996002,None,55.29051259998232,None,,,,,,,,,,,,,,,,,,,,,,,,,,,,,2020_Jul_09_0550,ANT,2020.1.3,59.96911590750591,
ANT_images/center.png,ANT_images/neu_r.png,0.25,i,1.0,0.1,1.5,0,16,16,9,,,,,,,,,,,,,,,,,,,,,,,,,,,,,55.87664579995908,56.876682100002654,56.86343639995903,56.977368799969554,56.977368799969554,57.37449999997625,57.37449999997625,None,i,1,0.43246550002368167,57.36001229996327,None,57.80711569997948,None,,,,,,,,,,,,,,,,,,,,,,,,,,,,,2020_Jul_09_0550,ANT,2020.1.3,59.96911590750591,
ANT_images/double.png,ANT_images/incong_r.png,-0.25,i,1.6,0.1,2.1,0,17,17,11,,,,,,,,,,,,,,,,,,,,,,,,,,,,,58.40331520000473,60.01010309997946,59.99714289995609,60.11070479999762,60.11070479999762,60.50778929999797,60.50778929999797,None,e,0,0.4154829999897629,60.49367239995627,None,60.934230399958324,None,,,,,,,,,,,,,,,,,,,,,,,,,,,,,2020_Jul_09_0550,ANT,2020.1.3,59.96911590750591,
ANT_images/center.png,ANT_images/incong_l.png,-0.25,e,1.3,0.1,1.8000000000000003,0,18,18,22,,,,,,,,,,,,,,,,,,,,,,,,,,,,,61.52820080000674,62.843253099999856,62.83027849998325,62.94382469996344,62.94382469996344,63.341067100001965,63.341067100001965,None,e,1,0.6658453000127338,63.326704300008714,None,64.01698399998713,None,,,,,,,,,,,,,,,,,,,,,,,,,,,,,2020_Jul_09_0550,ANT,2020.1.3,59.96911590750591,
ANT_images/center.png,ANT_images/incong_r.png,0.25,i,0.4,0.1,0.9,0,19,19,23,,,,,,,,,,,,,,,,,,,,,,,,,,,,,64.61039159999928,65.00991859997157,64.99683650000952,65.1104090999579,65.1104090999579,65.50775980000617,65.50775980000617,None,i,1,0.5477125000325032,65.49357940000482,None,66.05704609997338,None,,,,,,,,,,,,,,,,,,,,,,,,,,,,,2020_Jul_09_0550,ANT,2020.1.3,59.96911590750591,
ANT_images/none.png,ANT_images/cong_l.png,-0.25,e,0.1,0.0,0.5,0,20,20,0,,,,,,,,,,,,,,,,,,,,,,,,,,,,,66.6460747999954,66.75999429996591,66.74709359998815,66.74709359998815,66.74709359998815,67.15784860000713,67.15784860000713,None,e,1,0.6645153000135906,67.14334690000396,None,67.82334130001254,None,,,,,,,,,,,,,,,,,,,,,,,,,,,,,2020_Jul_09_0550,ANT,2020.1.3,59.96911590750591,
ANT_images/center.png,ANT_images/neu_l.png,0.25,e,1.1,0.1,1.6,0,21,21,7,,,,,,,,,,,,,,,,,,,,,,,,,,,,,68.38839729997562,69.49316799995722,69.48022460000357,69.5938266000012,69.5938266000012,69.99112699995749,69.99112699995749,None,e,1,0.5154343000031076,69.97669669997413,None,70.50699399999576,None,,,,,,,,,,,,,,,,,,,,,,,,,,,,,2020_Jul_09_0550,ANT,2020.1.3,59.96911590750591,
ANT_images/double.png,ANT_images/neu_r.png,-0.25,i,0.7,0.1,1.2,0,22,22,10,,,,,,,,,,,,,,,,,,,,,,,,,,,,,71.09126229997491,71.7932874999824,71.78026739996858,71.89391449996037,71.89391449996037,72.29106560000218,72.29106560000218,None,i,1,0.39863700000569224,72.27677820000099,None,72.6902848999598,None,,,,,,,,,,,,,,,,,,,,,,,,,,,,,2020_Jul_09_0550,ANT,2020.1.3,59.96911590750591,
ANT_images/double.png,ANT_images/neu_r.png,0.25,i,1.2,0.1,1.7000000000000002,0,23,23,14,,,,,,,,,,,,,,,,,,,,,,,,,,,,,73.27526610001223,74.47663619997911,74.46354929998051,74.5771470000036,74.5771470000036,74.97433060000185,74.97433060000185,None,i,1,0.46583810000447556,74.95992190000834,None,75.44021709996741,None,,,,,,,,,,,,,,,,,,,,,,,,,,,,,2020_Jul_09_0550,ANT,2020.1.3,59.96911590750591,
,,,,,,,,,,,,,,,,,,,,,,,,,,,,,,,,,,,,,,,,,,,,,,,,,,,,,,75.84027539996896,None,space,0.951250100042671,75.84027539996896,None,,,,,,,,,,,,,,,,,,,,,,,2020_Jul_09_0550,ANT,2020.1.3,59.96911590750591,
,,,,,,,,,,,,,,,,,,,,,,,,,,,,,,,,,,,,,,,,,,,,,,,,,,,,,,,,,,,,76.80706179997651,None,space,0.45135689998278394,76.80706179997651,None,,,,,,,,,,,,,,,,,2020_Jul_09_0550,ANT,2020.1.3,59.96911590750591,
ANT_images/double.png,ANT_images/neu_r.png,-0.25,i,0.7,0.1,1.2,,,,,0,0,0,0,0,0,0,31,,,,,,,,,,,,,,,,,,,,,,,,,,,,,,,,,,,,,,,,,,,,,,,,77.45255180000095,78.25247690000106,78.24490859999787,78.49013250001008,78.49013250001008,78.89092360000359,78.89092360000359,None,80.59076651000069,None,None,0,77.45255180000095,79.15753209998365,,,2020_Jul_09_0550,ANT,2020.1.3,59.96911590750591,
ANT_images/none.png,ANT_images/neu_l.png,-0.25,e,0.1,0.0,0.5,,,,,0,0,0,0,0,1,1,6,,,,,,,,,,,,,,,,,,,,,,,,,,,,,,,,,,,,,,,,,,,,,,,,80.74510549998377,80.85984270001063,80.84623259998625,80.84623259998625,80.84623259998625,81.25765679997858,81.25765679997858,80.74510549998377,80.74510549998377,80.74510549998377,e,1,80.74510549998377,None,1.096992600010708,,2020_Jul_09_0550,ANT,2020.1.3,59.96911590750591,
ANT_images/down.png,ANT_images/incong_r.png,-0.25,i,1.0,0.1,1.5,,,,,0,0,0,0,0,2,2,47,,,,,,,,,,,,,,,,,,,,,,,,,,,,,,,,,,,,,,,,,,,,,,,,82.00738069997169,83.00978249998298,82.99684209999396,83.1099164999905,83.1099164999905,83.50751769996714,83.50751769996714,None,85.2072893100034,None,None,0,82.00738069997169,83.70705229998566,,,2020_Jul_09_0550,ANT,2020.1.3,59.96911590750591,
ANT_images/none.png,ANT_images/cong_r.png,0.25,i,0.1,0.0,0.5,,,,,0,0,0,0,0,3,3,3,,,,,,,,,,,,,,,,,,,,,,,,,,,,,,,,,,,,,,,,,,,,,,,,85.34466619999148,85.4597470999579,85.4460848000017,85.4460848000017,85.4460848000017,85.85739739995915,85.85739739995915,85.34466619999148,85.34466619999148,85.34466619999148,i,1,85.34466619999148,None,1.1304128000047058,,2020_Jul_09_0550,ANT,2020.1.3,59.96911590750591,
ANT_images/center.png,ANT_images/neu_r.png,0.25,i,1.0,0.1,1.5,,,,,0,0,0,0,0,4,4,13,,,,,,,,,,,,,,,,,,,,,,,,,,,,,,,,,,,,,,,,,,,,,,,,86.64102429995546,87.64321650000056,87.62988669995684,87.74325920001138,87.74325920001138,88.14076819998445,88.14076819998445,None,89.84081840998843,None,None,0,86.64102429995546,88.34081249998417,,,2020_Jul_09_0550,ANT,2020.1.3,59.96911590750591,
ANT_images/double.png,ANT_images/incong_l.png,0.25,e,1.0,0.1,1.5,,,,,0,0,0,0,0,5,5,28,,,,,,,,,,,,,,,,,,,,,,,,,,,,,,,,,,,,,,,,,,,,,,,,89.98876669997117,90.99304809997557,90.9800421000109,91.09316599997692,91.09316599997692,91.49087479995796,91.49087479995796,89.98876669997117,93.1907065099862,89.98876669997117,None,0,89.98876669997117,91.69070430001011,,,2020_Jul_09_0550,ANT,2020.1.3,59.96911590750591,
ANT_images/down.png,ANT_images/cong_l.png,-0.25,e,1.2,0.1,1.7000000000000002,,,,,0,0,0,0,0,6,6,44,,,,,,,,,,,,,,,,,,,,,,,,,,,,,,,,,,,,,,,,,,,,,,,,93.33315789996414,94.54318499995861,94.5133799999603,94.6264115999802,94.6264115999802,95.02408269996522,95.02408269996522,93.33315789996414,96.72408431000659,93.33315789996414,None,0,93.33315789996414,95.04064189997735,,,2020_Jul_09_0550,ANT,2020.1.3,59.96911590750591,
ANT_images/none.png,ANT_images/neu_r.png,0.25,i,0.1,0.0,0.5,,,,,0,0,0,0,0,7,7,1,,,,,,,,,,,,,,,,,,,,,,,,,,,,,,,,,,,,,,,,,,,,,,,,96.87529999995604,96.97627699997975,96.96263169997837,96.96263169997837,96.96263169997837,97.37411869998323,97.37411869998323,96.87529999995604,96.87529999995604,96.87529999995604,i,1,96.87529999995604,None,0.999026200035587,,2020_Jul_09_0550,ANT,2020.1.3,59.96911590750591,
ANT_images/none.png,ANT_images/cong_l.png,-0.25,e,0.1,0.0,0.5,,,,,0,0,0,0,0,8,8,8,,,,,,,,,,,,,,,,,,,,,,,,,,,,,,,,,,,,,,,,,,,,,,,,98.03536669997266,98.14307379996171,98.12930889998097,98.12930889998097,98.12930889998097,98.54085629998008,98.54085629998008,None,None,None,e,1,98.03536669997266,None,1.2233077000128105,,2020_Jul_09_0550,ANT,2020.1.3,59.96911590750591,
ANT_images/double.png,ANT_images/neu_l.png,-0.25,e,0.5,0.1,1.0,,,,,0,0,0,0,0,9,9,30,,,,,,,,,,,,,,,,,,,,,,,,,,,,,,,,,,,,,,,,,,,,,,,,99.42235599999549,99.92631209996762,99.91312029998517,100.02631980000297,100.02631980000297,100.42370569997001,100.42370569997001,None,None,None,e,1,99.42235599999549,None,1.4686409000423737,,2020_Jul_09_0550,ANT,2020.1.3,59.96911590750591,
ANT_images/double.png,ANT_images/neu_r.png,0.25,i,1.2,0.1,1.7000000000000002,,,,,0,0,0,0,0,10,10,25,,,,,,,,,,,,,,,,,,,,,,,,,,,,,,,,,,,,,,,,,,,,,,,,101.03121369995642,102.24300059996312,102.23001100000693,102.34321550000459,102.34321550000459,102.74086809996516,102.74086809996516,None,104.44062770996825,None,None,0,101.03121369995642,102.74086809996516,,,2020_Jul_09_0550,ANT,2020.1.3,59.96911590750591,
ANT_images/down.png,ANT_images/neu_l.png,-0.25,e,0.8,0.1,1.3,,,,,0,0,0,0,0,11,11,42,,,,,,,,,,,,,,,,,,,,,,,,,,,,,,,,,,,,,,,,,,,,,,,,104.58424900000682,105.39291150000645,105.36319880001247,105.47655129997293,105.47655129997293,105.87408649997087,105.87408649997087,104.58424900000682,104.58424900000682,104.58424900000682,e,1,104.58424900000682,None,1.674723299976904,,2020_Jul_09_0550,ANT,2020.1.3,59.96911590750591,
ANT_images/none.png,ANT_images/cong_l.png,0.25,e,0.1,0.0,0.5,,,,,0,0,0,0,0,12,12,2,,,,,,,,,,,,,,,,,,,,,,,,,,,,,,,,,,,,,,,,,,,,,,,,106.42680779995862,106.5262914999621,106.51269589998992,106.51269589998992,106.51269589998992,106.92412290000357,106.92412290000357,None,None,None,e,1,106.42680779995862,None,1.2808148000040092,,2020_Jul_09_0550,ANT,2020.1.3,59.96911590750591,
ANT_images/up.png,ANT_images/cong_r.png,0.25,i,1.4,0.1,1.9,,,,,0,0,0,0,0,13,13,39,,,,,,,,,,,,,,,,,,,,,,,,,,,,,,,,,,,,,,,,,,,,,,,,107.87201160000404,109.27622800000245,109.26329059997806,109.3762811999768,109.3762811999768,109.78905789996497,109.78905789996497,None,111.49048730999348,None,None,0,107.87201160000404,109.57642299996223,,,2020_Jul_09_0550,ANT,2020.1.3,59.96911590750591,
ANT_images/none.png,ANT_images/neu_r.png,-0.25,i,0.1,0.0,0.5,,,,,0,0,0,0,0,14,14,7,,,,,,,,,,,,,,,,,,,,,,,,,,,,,,,,,,,,,,,,,,,,,,,,111.63758429995505,111.74285849998705,111.72938249999424,111.72938249999424,111.72938249999424,112.14061830000719,112.14061830000719,111.63758429995505,111.63758429995505,111.63758429995505,i,1,111.63758429995505,None,1.070951099973172,,2020_Jul_09_0550,ANT,2020.1.3,59.96911590750591,
ANT_images/up.png,ANT_images/neu_r.png,0.25,i,0.8,0.1,1.3,,,,,0,0,0,0,0,15,15,37,,,,,,,,,,,,,,,,,,,,,,,,,,,,,,,,,,,,,,,,,,,,,,,,112.87500890000956,113.67618099995889,113.66316219995497,113.77637899998808,113.77637899998808,114.17400339996675,114.17400339996675,None,115.87379300996545,None,None,0,112.87500890000956,114.5905872999574,,,2020_Jul_09_0550,ANT,2020.1.3,59.96911590750591,
ANT_images/double.png,ANT_images/cong_r.png,-0.25,i,1.1,0.1,1.6,,,,,0,0,0,0,0,16,16,33,,,,,,,,,,,,,,,,,,,,,,,,,,,,,,,,,,,,,,,,,,,,,,,,116.02514729998074,117.12578090000898,117.11289819999365,117.22586030000821,117.22586030000821,117.62395929999184,117.62395929999184,116.02514729998074,119.32378121000366,116.02514729998074,None,0,116.02514729998074,117.74048279999988,,,2020_Jul_09_0550,ANT,2020.1.3,59.96911590750591,
ANT_images/double.png,ANT_images/incong_r.png,0.25,i,0.9,0.1,1.4,,,,,0,0,0,0,0,17,17,29,,,,,,,,,,,,,,,,,,,,,,,,,,,,,,,,,,,,,,,,,,,,,,,,119.474804700003,120.37610049999785,120.36299180000788,120.47630689997459,120.47630689997459,120.87389489996713,120.87389489996713,119.474804700003,122.57375770999934,119.474804700003,None,0,119.474804700003,121.17375039996114,,,2020_Jul_09_0550,ANT,2020.1.3,59.96911590750591,
ANT_images/up.png,ANT_images/cong_l.png,0.25,e,1.5,0.1,2.0,,,,,0,0,0,0,0,18,18,38,,,,,,,,,,,,,,,,,,,,,,,,,,,,,,,,,,,,,,,,,,,,,,,,122.76443609996932,124.27616069995565,124.26300879998598,124.3763481999631,124.3763481999631,124.77403809997486,124.77403809997486,122.76443609996932,126.47383010999184,122.76443609996932,None,0,122.76443609996932,124.47631389996968,,,2020_Jul_09_0550,ANT,2020.1.3,59.96911590750591,
ANT_images/center.png,ANT_images/neu_r.png,-0.25,i,0.7,0.1,1.2,,,,,0,0,0,0,0,19,19,19,,,,,,,,,,,,,,,,,,,,,,,,,,,,,,,,,,,,,,,,,,,,,,,,126.62238559999969,127.32605149998562,127.31294559995877,127.42672499996843,127.42672499996843,127.82394219998969,127.82394219998969,126.62238559999969,126.62238559999969,126.62238559999969,i,1,126.62238559999969,None,1.6529634000035003,,2020_Jul_09_0550,ANT,2020.1.3,59.96911590750591,
ANT_images/center.png,ANT_images/incong_r.png,-0.25,i,0.9,0.1,1.4,,,,,0,0,0,0,0,20,20,23,,,,,,,,,,,,,,,,,,,,,,,,,,,,,,,,,,,,,,,,,,,,,,,,128.44167619996006,129.34270799998194,129.32974469999317,129.44308629998704,129.44308629998704,129.8406471000053,129.8406471000053,None,131.54039821000188,None,None,0,128.44167619996006,130.1570451000007,,,2020_Jul_09_0550,ANT,2020.1.3,59.96911590750591,
ANT_images/double.png,ANT_images/neu_l.png,0.25,e,0.6,0.1,1.1,,,,,0,0,0,0,0,21,21,24,,,,,,,,,,,,,,,,,,,,,,,,,,,,,,,,,,,,,,,,,,,,,,,,131.69421749998583,132.3090720999753,132.2959849999752,132.4091378999874,132.4091378999874,132.8066884999862,132.8066884999862,131.69421749998583,131.69421749998583,131.69421749998583,e,1,131.69421749998583,None,1.4972075000405312,,2020_Jul_09_0550,ANT,2020.1.3,59.96911590750591,
ANT_images/center.png,ANT_images/incong_l.png,-0.25,e,1.3,0.1,1.8000000000000003,,,,,0,0,0,0,0,22,22,22,,,,,,,,,,,,,,,,,,,,,,,,,,,,,,,,,,,,,,,,,,,,,,,,133.35077279998222,134.6592985999887,134.62974199996097,134.74287670000922,134.74287670000922,135.14045159996022,135.14045159996022,None,136.84034950996866,None,None,0,133.35077279998222,135.059648800001,,,2020_Jul_09_0550,ANT,2020.1.3,59.96911590750591,
ANT_images/center.png,ANT_images/incong_l.png,0.25,e,0.5,0.1,1.0,,,,,0,0,0,0,0,23,23,16,,,,,,,,,,,,,,,,,,,,,,,,,,,,,,,,,,,,,,,,,,,,,,,,136.99140989995794,137.4927147999988,137.47963139996864,137.59262859995943,137.59262859995943,137.99057530000573,137.99057530000573,136.99140989995794,136.99140989995794,136.99140989995794,e,1,136.99140989995794,None,1.6017724000266753,,2020_Jul_09_0550,ANT,2020.1.3,59.96911590750591,
ANT_images/none.png,ANT_images/incong_l.png,-0.25,e,0.1,0.0,0.5,,,,,0,0,0,0,0,24,24,10,,,,,,,,,,,,,,,,,,,,,,,,,,,,,,,,,,,,,,,,,,,,,,,,138.75851759995567,138.85936209995998,138.8455862000119,138.8455862000119,138.8455862000119,139.2571821999736,139.2571821999736,None,None,None,e,1,138.75851759995567,None,1.0338625999866053,,2020_Jul_09_0550,ANT,2020.1.3,59.96911590750591,
ANT_images/double.png,ANT_images/cong_l.png,-0.25,e,0.4,0.1,0.9,,,,,0,0,0,0,0,25,25,32,,,,,,,,,,,,,,,,,,,,,,,,,,,,,,,,,,,,,,,,,,,,,,,,139.9602414999972,140.3597627999843,140.3597627999843,140.4593832999817,140.4593832999817,140.85703779995674,140.85703779995674,None,None,None,e,1,139.9602414999972,None,1.3645162000320852,,2020_Jul_09_0550,ANT,2020.1.3,59.96911590750591,
ANT_images/down.png,ANT_images/incong_l.png,-0.25,e,1.3,0.1,1.8000000000000003,,,,,0,0,0,0,0,26,26,46,,,,,,,,,,,,,,,,,,,,,,,,,,,,,,,,,,,,,,,,,,,,,,,,141.49226440000348,142.79217979998793,142.77919239999028,142.8927459999686,142.8927459999686,143.29026949999388,143.29026949999388,None,144.99018770998228,None,None,0,141.49226440000348,143.1926906000008,,,2020_Jul_09_0550,ANT,2020.1.3,59.96911590750591,
ANT_images/up.png,ANT_images/incong_r.png,0.25,i,0.9,0.1,1.4,,,,,0,0,0,0,0,27,27,41,,,,,,,,,,,,,,,,,,,,,,,,,,,,,,,,,,,,,,,,,,,,,,,,145.14168259996222,146.04261569998926,146.02963780000573,146.1425405999762,146.1425405999762,146.54036280000582,146.54036280000582,145.14168259996222,148.24004260998336,145.14168259996222,None,0,145.14168259996222,146.85705659998348,,,2020_Jul_09_0550,ANT,2020.1.3,59.96911590750591,
ANT_images/none.png,ANT_images/incong_r.png,0.25,i,0.1,0.0,0.5,,,,,0,0,0,0,0,28,28,5,,,,,,,,,,,,,,,,,,,,,,,,,,,,,,,,,,,,,,,,,,,,,,,,148.37486370000988,148.47556809999514,148.4619040999678,148.4619040999678,148.4619040999678,148.8733712999965,148.8733712999965,148.37486370000988,148.37486370000988,148.37486370000988,i,1,148.37486370000988,None,1.1165331999654882,,2020_Jul_09_0550,ANT,2020.1.3,59.96911590750591,
ANT_images/center.png,ANT_images/cong_r.png,-0.25,i,1.6,0.1,2.1,,,,,0,0,0,0,0,29,29,21,,,,,,,,,,,,,,,,,,,,,,,,,,,,,,,,,,,,,,,,,,,,,,,,149.65191640000558,151.2591927999747,151.24608919996535,151.3592321999604,151.3592321999604,151.75707829999737,151.75707829999737,None,153.4568994100031,None,None,0,149.65191640000558,151.3592321999604,,,2020_Jul_09_0550,ANT,2020.1.3,59.96911590750591,
ANT_images/center.png,ANT_images/neu_l.png,0.25,e,1.1,0.1,1.6,,,,,0,0,0,0,0,30,30,12,,,,,,,,,,,,,,,,,,,,,,,,,,,,,,,,,,,,,,,,,,,,,,,,153.59980179998092,154.7092083999887,154.6796127000125,154.79273049999028,154.79273049999028,155.19029870000668,155.19029870000668,153.59980179998092,156.8902391099895,153.59980179998092,None,0,153.59980179998092,155.30687159998342,,,2020_Jul_09_0550,ANT,2020.1.3,59.96911590750591,
ANT_images/center.png,ANT_images/cong_l.png,0.25,e,1.2,0.1,1.7000000000000002,,,,,0,0,0,0,0,31,31,14,,,,,,,,,,,,,,,,,,,,,,,,,,,,,,,,,,,,,,,,,,,,,,,,157.03465260000667,158.24250399996527,158.22944949998055,158.3425511000096,158.3425511000096,158.74024299997836,158.74024299997836,157.03465260000667,160.4400584099989,157.03465260000667,None,0,157.03465260000667,158.74024299997836,,,2020_Jul_09_0550,ANT,2020.1.3,59.96911590750591,
ANT_images/none.png,ANT_images/neu_l.png,0.25,e,0.1,0.0,0.5,,,,,0,0,0,0,0,32,32,0,,,,,,,,,,,,,,,,,,,,,,,,,,,,,,,,,,,,,,,,,,,,,,,,160.58928209997248,160.69247780001024,160.67900880001253,160.67900880001253,160.67900880001253,161.09023199998774,161.09023199998774,160.58928209997248,160.58928209997248,160.58928209997248,e,1,160.58928209997248,None,1.0022848999942653,,2020_Jul_09_0550,ANT,2020.1.3,59.96911590750591,
ANT_images/double.png,ANT_images/incong_r.png,-0.25,i,1.6,0.1,2.1,,,,,0,0,0,0,0,33,33,35,,,,,,,,,,,,,,,,,,,,,,,,,,,,,,,,,,,,,,,,,,,,,,,,161.7558643000084,163.35923169995658,163.3459520000033,163.459773199982,163.459773199982,163.85675779997837,163.85675779997837,None,165.5567892099556,None,None,0,161.7558643000084,163.459773199982,,,2020_Jul_09_0550,ANT,2020.1.3,59.96911590750591,
ANT_images/up.png,ANT_images/incong_l.png,0.25,e,0.5,0.1,1.0,,,,,0,0,0,0,0,34,34,40,,,,,,,,,,,,,,,,,,,,,,,,,,,,,,,,,,,,,,,,,,,,,,,,165.69311429996742,166.19292140001198,166.19292140001198,166.29269119998207,166.29269119998207,166.6902054999955,166.6902054999955,165.69311429996742,165.69311429996742,165.69311429996742,e,1,165.69311429996742,None,1.5323836000170559,,2020_Jul_09_0550,ANT,2020.1.3,59.96911590750591,
ANT_images/double.png,ANT_images/cong_l.png,0.25,e,0.6,0.1,1.1,,,,,0,0,0,0,0,35,35,26,,,,,,,,,,,,,,,,,,,,,,,,,,,,,,,,,,,,,,,,,,,,,,,,167.3857194999582,167.99250799999572,167.97924559999956,168.0924956999952,168.0924956999952,168.490196299972,168.490196299972,None,None,None,e,1,167.3857194999582,None,1.5225888999993913,,2020_Jul_09_0550,ANT,2020.1.3,59.96911590750591,
ANT_images/center.png,ANT_images/cong_l.png,-0.25,e,1.5,0.1,2.0,,,,,0,0,0,0,0,36,36,20,,,,,,,,,,,,,,,,,,,,,,,,,,,,,,,,,,,,,,,,,,,,,,,,169.0736404999625,170.57386289996793,170.5588082000031,170.6739809999708,170.6739809999708,171.071720500011,171.071720500011,None,172.77186650998775,None,None,0,169.0736404999625,170.7740252999938,,,2020_Jul_09_0550,ANT,2020.1.3,59.96911590750591,
ANT_images/down.png,ANT_images/neu_r.png,-0.25,i,0.6,0.1,1.1,,,,,0,0,0,0,0,37,37,43,,,,,,,,,,,,,,,,,,,,,,,,,,,,,,,,,,,,,,,,,,,,,,,,172.9187180000008,173.52417140000034,173.50952479999978,173.62417809996987,173.62417809996987,174.02228299999842,174.02228299999842,172.9187180000008,172.9187180000008,172.9187180000008,i,1,172.9187180000008,None,1.5717165999813005,,2020_Jul_09_0550,ANT,2020.1.3,59.96911590750591,
ANT_images/center.png,ANT_images/cong_r.png,0.25,i,1.4,0.1,1.9,,,,,0,0,0,0,0,38,38,15,,,,,,,,,,,,,,,,,,,,,,,,,,,,,,,,,,,,,,,,,,,,,,,,174.65352659998462,176.05866009998135,176.04525089997333,176.1588237999822,176.1588237999822,176.5569624999771,176.5569624999771,None,178.25674470997765,None,None,0,174.65352659998462,176.35931069997605,,,2020_Jul_09_0550,ANT,2020.1.3,59.96911590750591,
