cue_file,flanker,pos,correct,fix1,cue_time,stimStart,practice.thisRepN,practice.thisTrialN,practice.thisN,practice.thisIndex,trials_2.thisRepN,trials_2.thisTrialN,trials_2.thisN,trials_2.thisIndex,trials.thisRepN,trials.thisTrialN,trials.thisN,trials.thisIndex,instr_1.started,instr_1.stopped,image.started,image.stopped,instr_2.started,instr_2.stopped,image_2_1.started,image_2_1.stopped,image_2_2.started,image_2_2.stopped,text.started,text.stopped,image_3.started,image_3.stopped,instr_4.started,instr_4.stopped,image_4.started,image_4.stopped,pract_instr.started,pract_instr.stopped,fix_1.started,fix_1.stopped,pract_warning.started,pract_warning.stopped,fix_2.started,fix_2.stopped,pract_target.started,pract_target.stopped,pract_resp.keys,pract_resp.corr,pract_resp.rt,pract_resp.started,pract_resp.stopped,text_3.started,text_3.stopped,practice_res.started,practice_res.stopped,practice_accuracy.started,practice_accuracy.stopped,response_time.started,response_time.stopped,text_5.started,text_5.stopped,participant,session,date,expName,psychopyVersion,frameRate,
ANT_images/center.png,ANT_images/incong_r.png,0.25,i,0.4,0.1,0.9,0,0,0,23,,,,,,,,,15.999235299997963,None,15.999235299997963,None,17.23741699999664,None,17.23741699999664,None,17.23741699999664,None,18.644307500042487,None,18.644307500042487,None,19.175148500013165,None,19.175148500013165,None,19.50159410003107,None,20.2566247000359,20.66274490003707,20.613103100040462,20.828514599998016,20.828514599998016,21.25621920003323,21.25621920003323,None,i,1,0.7994823000044562,21.012871300044935,None,21.84679610002786,None,,,,,,,,,,001,2020_Jul_01_1558,ANT,2020.1.3,60.05158431222081,
ANT_images/down.png,ANT_images/incong_l.png,-0.25,e,1.3,0.1,1.8000000000000003,0,1,1,19,,,,,,,,,,,,,,,,,,,,,,,,,,,,,22.43565200001467,23.745979800005443,23.716253500024322,23.82997780002188,23.82997780002188,24.22703490004642,24.22703490004642,None,e,1,0.6645840000128374,24.212806800031103,None,24.89260700001614,None,,,,,,,,,,001,2020_Jul_01_1558,ANT,2020.1.3,60.05158431222081,
ANT_images/none.png,ANT_images/cong_l.png,-0.25,e,0.1,0.0,0.5,0,2,2,0,,,,,,,,,,,,,,,,,,,,,,,,,,,,,25.47993990004761,25.579847600020003,25.579847600020003,25.579847600020003,25.579847600020003,25.976728400040884,25.976728400040884,None,e,1,0.8172261000145227,25.976728400040884,None,26.809294900042005,None,,,,,,,,,,001,2020_Jul_01_1558,ANT,2020.1.3,60.05158431222081,
ANT_images/down.png,ANT_images/incong_r.png,-0.25,i,1.0,0.1,1.5,0,3,3,20,,,,,,,,,,,,,,,,,,,,,,,,,,,,,27.36796050000703,28.37932870001532,28.366175200033467,28.479551500000525,28.479551500000525,28.876965800009202,28.876965800009202,None,i,1,0.6320527999778278,28.862744700047188,None,29.50963230000343,None,,,,,,,,,,001,2020_Jul_01_1558,ANT,2020.1.3,60.05158431222081,
ANT_images/center.png,ANT_images/neu_l.png,0.25,e,1.1,0.1,1.6,0,4,4,7,,,,,,,,,,,,,,,,,,,,,,,,,,,,,30.092638700036332,31.195965100021567,31.182856200030074,31.296337700041477,31.296337700041477,31.693545999994967,31.693545999994967,None,e,1,0.5665634000324644,31.679397400002927,None,32.25956800003769,None,,,,,,,,,,001,2020_Jul_01_1558,ANT,2020.1.3,60.05158431222081,
ANT_images/up.png,ANT_images/neu_l.png,0.25,e,1.4,0.1,1.9,0,5,5,16,,,,,,,,,,,,,,,,,,,,,,,,,,,,,32.84987150004599,34.26245460001519,34.24964390002424,34.363076800014824,34.363076800014824,34.760405600012746,34.760405600012746,None,e,1,0.5325634999899194,34.745868400030304,None,35.29294460004894,None,,,,,,,,,,001,2020_Jul_01_1558,ANT,2020.1.3,60.05158431222081,
ANT_images/none.png,ANT_images/incong_r.png,0.25,i,0.1,0.0,0.5,0,6,6,1,,,,,,,,,,,,,,,,,,,,,,,,,,,,,35.87863140000263,35.97910680004861,35.96613930002786,35.96613930002786,35.96613930002786,36.37691960000666,36.37691960000666,None,i,1,0.6320896999677643,36.362591100041755,None,37.009619700023904,None,,,,,,,,,,001,2020_Jul_01_1558,ANT,2020.1.3,60.05158431222081,
ANT_images/none.png,ANT_images/cong_r.png,-0.25,i,0.1,0.0,0.5,0,7,7,3,,,,,,,,,,,,,,,,,,,,,,,,,,,,,37.59096370002953,37.69592830003239,37.682763700024225,37.682763700024225,37.682763700024225,38.093496999994386,38.093496999994386,None,i,1,0.6156152000185102,38.079236300021876,None,38.709358100022655,None,,,,,,,,,,001,2020_Jul_01_1558,ANT,2020.1.3,60.05158431222081,
ANT_images/none.png,ANT_images/cong_l.png,0.25,e,0.1,0.0,0.5,0,8,8,2,,,,,,,,,,,,,,,,,,,,,,,,,,,,,39.2908666000003,39.395755900011864,39.38287600001786,39.38287600001786,39.38287600001786,39.79365950002102,39.79365950002102,None,e,1,0.48269759997492656,39.77905220002867,None,40.276196699996945,None,,,,,,,,,,001,2020_Jul_01_1558,ANT,2020.1.3,60.05158431222081,
ANT_images/center.png,ANT_images/cong_r.png,0.25,i,1.4,0.1,1.9,0,9,9,8,,,,,,,,,,,,,,,,,,,,,,,,,,,,,40.87034130003303,42.27869480004301,42.24896470003296,42.36253199999919,42.36253199999919,42.75971710000886,42.75971710000886,None,i,1,0.4652326999930665,42.745378600026015,None,43.22578360000625,None,,,,,,,,,,001,2020_Jul_01_1558,ANT,2020.1.3,60.05158431222081,
ANT_images/none.png,ANT_images/cong_r.png,0.25,i,0.1,0.0,0.5,0,10,10,4,,,,,,,,,,,,,,,,,,,,,,,,,,,,,43.84084499999881,43.94566750002559,43.93255100003444,43.93255100003444,43.93255100003444,44.34353160002502,44.34353160002502,None,i,1,0.5156953000114299,44.329094500048086,None,44.85935680003604,None,,,,,,,,,,001,2020_Jul_01_1558,ANT,2020.1.3,60.05158431222081,
ANT_images/double.png,ANT_images/neu_r.png,0.25,i,1.2,0.1,1.7000000000000002,0,11,11,14,,,,,,,,,,,,,,,,,,,,,,,,,,,,,45.44754580000881,46.660531600005925,46.645303900004365,46.760607700038236,46.760607700038236,47.15845940000145,47.15845940000145,None,i,1,0.48255020001670346,47.143777500023134,None,47.641491000016686,None,,,,,,,,,,001,2020_Jul_01_1558,ANT,2020.1.3,60.05158431222081,
ANT_images/up.png,ANT_images/cong_l.png,0.25,e,1.5,0.1,2.0,0,12,12,15,,,,,,,,,,,,,,,,,,,,,,,,,,,,,48.21898639999563,49.727553500037175,49.71281240001554,49.8274284999934,49.8274284999934,50.225512300035916,50.225512300035916,None,e,1,0.4317260999814607,50.21078200003831,None,50.65846980002243,None,,,,,,,,,,001,2020_Jul_01_1558,ANT,2020.1.3,60.05158431222081,
ANT_images/center.png,ANT_images/neu_l.png,-0.25,e,0.8,0.1,1.3,0,13,13,5,,,,,,,,,,,,,,,,,,,,,,,,,,,,,51.24095530004706,52.04468779999297,52.0312257000478,52.14540570002282,52.14540570002282,52.542996200034395,52.542996200034395,None,e,1,0.7363324000034481,52.52875240001595,None,53.27588100003777,None,,,,,,,,,,001,2020_Jul_01_1558,ANT,2020.1.3,60.05158431222081,
ANT_images/center.png,ANT_images/neu_r.png,0.25,i,1.0,0.1,1.5,0,14,14,9,,,,,,,,,,,,,,,,,,,,,,,,,,,,,53.86935160000576,54.87880619999487,54.84915439999895,54.96266080002533,54.96266080002533,55.35997380001936,55.35997380001936,None,i,1,0.39891310001257807,55.34556480002357,None,55.75918550003553,None,,,,,,,,,,001,2020_Jul_01_1558,ANT,2020.1.3,60.05158431222081,
ANT_images/down.png,ANT_images/cong_l.png,-0.25,e,1.2,0.1,1.7000000000000002,0,15,15,18,,,,,,,,,,,,,,,,,,,,,,,,,,,,,56.34102019999409,57.54566730000079,57.53235280001536,57.64611240004888,57.64611240004888,58.04339390003588,58.04339390003588,None,e,1,0.39791200001491234,58.028876700031105,None,58.442206700041424,None,,,,,,,,,,001,2020_Jul_01_1558,ANT,2020.1.3,60.05158431222081,
ANT_images/double.png,ANT_images/cong_r.png,0.25,i,1.3,0.1,1.8000000000000003,0,16,16,13,,,,,,,,,,,,,,,,,,,,,,,,,,,,,59.003637699992396,60.31216740002856,60.28249040001538,60.396195900044404,60.396195900044404,60.793394900043495,60.793394900043495,None,i,1,0.400960800005123,60.793394900043495,None,61.20929950004211,None,,,,,,,,,,001,2020_Jul_01_1558,ANT,2020.1.3,60.05158431222081,
ANT_images/center.png,ANT_images/neu_r.png,0.25,i,1.0,0.1,1.5,0,17,17,6,,,,,,,,,,,,,,,,,,,,,,,,,,,,,61.79403230000753,62.795413200045004,62.78234810003778,62.8961012000218,62.8961012000218,63.29330150003079,63.29330150003079,None,i,1,0.44878780003637075,63.278848899994045,None,63.742460200039204,None,,,,,,,,,,001,2020_Jul_01_1558,ANT,2020.1.3,60.05158431222081,
ANT_images/double.png,ANT_images/neu_r.png,-0.25,i,0.7,0.1,1.2,0,18,18,10,,,,,,,,,,,,,,,,,,,,,,,,,,,,,64.3277320000343,65.02883090003161,65.01573300000746,65.12925880000694,65.12925880000694,65.52647350000916,65.52647350000916,None,i,1,0.5986762999673374,65.5124869000283,None,66.125889500021,None,,,,,,,,,,001,2020_Jul_01_1558,ANT,2020.1.3,60.05158431222081,
ANT_images/center.png,ANT_images/incong_l.png,-0.25,e,1.3,0.1,1.8000000000000003,0,19,19,22,,,,,,,,,,,,,,,,,,,,,,,,,,,,,66.77639220003039,68.07885370001895,68.06552020000527,68.17928899999242,68.17928899999242,68.57645819999743,68.57645819999743,None,e,1,0.7154334000078961,68.56224830000428,None,69.2925522000296,None,,,,,,,,,,001,2020_Jul_01_1558,ANT,2020.1.3,60.05158431222081,
ANT_images/none.png,ANT_images/neu_r.png,0.25,i,0.1,0.0,0.5,0,20,20,21,,,,,,,,,,,,,,,,,,,,,,,,,,,,,69.88104330003262,69.99534429999767,69.98230630002217,69.98230630002217,69.98230630002217,70.39307910000207,70.39307910000207,None,i,1,1.1156995000201277,70.3786716000177,None,71.50909300002968,None,,,,,,,,,,001,2020_Jul_01_1558,ANT,2020.1.3,60.05158431222081,
ANT_images/double.png,ANT_images/incong_r.png,-0.25,i,1.6,0.1,2.1,0,21,21,11,,,,,,,,,,,,,,,,,,,,,,,,,,,,,72.09960820002016,73.71199030004209,73.69906670000637,73.81228300003568,73.81228300003568,74.20944730000338,74.20944730000338,None,i,1,0.5984129999997094,74.19500110001536,None,74.80881509999745,None,,,,,,,,,,001,2020_Jul_01_1558,ANT,2020.1.3,60.05158431222081,
ANT_images/up.png,ANT_images/incong_r.png,0.25,i,0.9,0.1,1.4,0,22,22,17,,,,,,,,,,,,,,,,,,,,,,,,,,,,,75.40345949999755,76.31208639999386,76.28233100002399,76.39598200004548,76.39598200004548,76.79320210003061,76.79320210003061,None,e,0,0.3987648999900557,76.77893359999871,None,77.21832730004098,None,,,,,,,,,,001,2020_Jul_01_1558,ANT,2020.1.3,60.05158431222081,
ANT_images/double.png,ANT_images/incong_l.png,-0.25,e,1.5,0.1,2.0,0,23,23,12,,,,,,,,,,,,,,,,,,,,,,,,,,,,,77.79727969999658,79.3120977000217,79.29885469999863,79.41255250002723,79.41255250002723,79.80973660002928,79.80973660002928,None,e,1,0.6157982999575324,79.79535900003975,None,80.44035500002792,None,,,,,,,,,,001,2020_Jul_01_1558,ANT,2020.1.3,60.05158431222081,
,,,,,,,,,,,,,,,,,,,,,,,,,,,,,,,,,,,,,,,,,,,,,,,,,,,,,,80.89808980003,None,80.89808980003,None,80.89808980003,None,91.76250680000521,None,,,,,,,
