pract_resp.keys,pract_resp.corr,pract_resp.rt,practice.thisRepN,practice.thisTrialN,practice.thisN,practice.thisIndex,practice.ran,cue_file,flanker,pos,correct,fix1,cue_time,stimStart,participant,date,expName,psychopyVersion,OS,frameRate,key_resp_6.keys,key_resp_6.rt,key_resp_7.keys,key_resp_7.rt,response.keys,response.corr,response.rt,trials.thisRepN,trials.thisTrialN,trials.thisN,trials.thisIndex,trials.ran
i,1,0.48691,0,0,0,1,1,ANT_images/none.png,ANT_images/incong_r.png,0.25,i,0.1,0,0.5,flummox,2020-07-08_12h31.10.525,ANT,2020.1.3,MacIntel,60,,,,,,,,,,,,
e,1,0.5342,0,1,1,22,1,ANT_images/center.png,ANT_images/incong_l.png,-0.25,e,1.3,0.1,1.8,flummox,2020-07-08_12h31.10.525,ANT,2020.1.3,MacIntel,60,,,,,,,,,,,,
i,0,0.36431,0,2,2,19,1,ANT_images/down.png,ANT_images/incong_l.png,-0.25,e,1.3,0.1,1.8,flummox,2020-07-08_12h31.10.525,ANT,2020.1.3,MacIntel,60,,,,,,,,,,,,
e,1,0.526195,0,3,3,12,1,ANT_images/double.png,ANT_images/incong_l.png,-0.25,e,1.5,0.1,2,flummox,2020-07-08_12h31.10.525,ANT,2020.1.3,MacIntel,60,,,,,,,,,,,,
i,1,0.46385,0,4,4,6,1,ANT_images/center.png,ANT_images/neu_r.png,0.25,i,1,0.1,1.5,flummox,2020-07-08_12h31.10.525,ANT,2020.1.3,MacIntel,60,,,,,,,,,,,,
e,1,0.42264,0,5,5,15,1,ANT_images/up.png,ANT_images/cong_l.png,0.25,e,1.5,0.1,2,flummox,2020-07-08_12h31.10.525,ANT,2020.1.3,MacIntel,60,,,,,,,,,,,,
i,1,0.49601,0,6,6,13,1,ANT_images/double.png,ANT_images/cong_r.png,0.25,i,1.3,0.1,1.8,flummox,2020-07-08_12h31.10.525,ANT,2020.1.3,MacIntel,60,,,,,,,,,,,,
e,1,0.33254,0,7,7,7,1,ANT_images/center.png,ANT_images/neu_l.png,0.25,e,1.1,0.1,1.6,flummox,2020-07-08_12h31.10.525,ANT,2020.1.3,MacIntel,60,,,,,,,,,,,,
i,1,0.550725,0,8,8,20,1,ANT_images/down.png,ANT_images/incong_r.png,-0.25,i,1,0.1,1.5,flummox,2020-07-08_12h31.10.525,ANT,2020.1.3,MacIntel,60,,,,,,,,,,,,
e,0,0.38768,0,9,9,17,1,ANT_images/up.png,ANT_images/incong_r.png,0.25,i,0.9,0.1,1.4,flummox,2020-07-08_12h31.10.525,ANT,2020.1.3,MacIntel,60,,,,,,,,,,,,
e,1,0.616925,0,10,10,5,1,ANT_images/center.png,ANT_images/neu_l.png,-0.25,e,0.8,0.1,1.3,flummox,2020-07-08_12h31.10.525,ANT,2020.1.3,MacIntel,60,,,,,,,,,,,,
i,1,0.534625,0,11,11,11,1,ANT_images/double.png,ANT_images/incong_r.png,-0.25,i,1.6,0.1,2.1,flummox,2020-07-08_12h31.10.525,ANT,2020.1.3,MacIntel,60,,,,,,,,,,,,
i,1,0.713745,0,12,12,23,1,ANT_images/center.png,ANT_images/incong_r.png,0.25,i,0.4,0.1,0.9,flummox,2020-07-08_12h31.10.525,ANT,2020.1.3,MacIntel,60,,,,,,,,,,,,
i,1,0.488375,0,13,13,10,1,ANT_images/double.png,ANT_images/neu_r.png,-0.25,i,0.7,0.1,1.2,flummox,2020-07-08_12h31.10.525,ANT,2020.1.3,MacIntel,60,,,,,,,,,,,,
e,1,0.55154,0,14,14,0,1,ANT_images/none.png,ANT_images/cong_l.png,-0.25,e,0.1,0,0.5,flummox,2020-07-08_12h31.10.525,ANT,2020.1.3,MacIntel,60,,,,,,,,,,,,
i,1,0.437575,0,15,15,9,1,ANT_images/center.png,ANT_images/neu_r.png,0.25,i,1,0.1,1.5,flummox,2020-07-08_12h31.10.525,ANT,2020.1.3,MacIntel,60,,,,,,,,,,,,
i,1,0.552605,0,16,16,21,1,ANT_images/none.png,ANT_images/neu_r.png,0.25,i,0.1,0,0.5,flummox,2020-07-08_12h31.10.525,ANT,2020.1.3,MacIntel,60,,,,,,,,,,,,
e,1,0.48695,0,17,17,18,1,ANT_images/down.png,ANT_images/cong_l.png,-0.25,e,1.2,0.1,1.7,flummox,2020-07-08_12h31.10.525,ANT,2020.1.3,MacIntel,60,,,,,,,,,,,,
i,1,0.413135,0,18,18,14,1,ANT_images/double.png,ANT_images/neu_r.png,0.25,i,1.2,0.1,1.7,flummox,2020-07-08_12h31.10.525,ANT,2020.1.3,MacIntel,60,,,,,,,,,,,,
e,1,0.570705,0,19,19,2,1,ANT_images/none.png,ANT_images/cong_l.png,0.25,e,0.1,0,0.5,flummox,2020-07-08_12h31.10.525,ANT,2020.1.3,MacIntel,60,,,,,,,,,,,,
e,1,0.467095,0,20,20,16,1,ANT_images/up.png,ANT_images/neu_l.png,0.25,e,1.4,0.1,1.9,flummox,2020-07-08_12h31.10.525,ANT,2020.1.3,MacIntel,60,,,,,,,,,,,,
i,1,0.419405,0,21,21,8,1,ANT_images/center.png,ANT_images/cong_r.png,0.25,i,1.4,0.1,1.9,flummox,2020-07-08_12h31.10.525,ANT,2020.1.3,MacIntel,60,,,,,,,,,,,,
i,1,0.503915,0,22,22,4,1,ANT_images/none.png,ANT_images/cong_r.png,0.25,i,0.1,0,0.5,flummox,2020-07-08_12h31.10.525,ANT,2020.1.3,MacIntel,60,,,,,,,,,,,,
i,1,0.48036,0,23,23,3,1,ANT_images/none.png,ANT_images/cong_r.png,-0.25,i,0.1,0,0.5,flummox,2020-07-08_12h31.10.525,ANT,2020.1.3,MacIntel,60,,,,,,,,,,,,
,,,,,,,,ANT_images/none.png,ANT_images/incong_r.png,0.25,i,0.1,0,0.5,flummox,2020-07-08_12h31.10.525,ANT,2020.1.3,MacIntel,60,space,1.30454,space,3.016045,i,1,0.998075,0,0,0,5,1
