pract_resp.keys,pract_resp.corr,practice.thisRepN,practice.thisTrialN,practice.thisN,practice.thisIndex,practice.ran,cue_file,flanker,pos,correct,fix1,cue_time,stimStart,participant,date,expName,psychopyVersion,OS,frameRate,pract_resp.rt,key_resp_6.keys,key_resp_6.rt,key_resp_7.keys,key_resp_7.rt,response.keys,response.corr,trials.thisRepN,trials.thisTrialN,trials.thisN,trials.thisIndex,trials.ran,postFix,response.rt,trials_2.thisRepN,trials_2.thisTrialN,trials_2.thisN,trials_2.thisIndex,trials_2.ran,trials_3.thisRepN,trials_3.thisTrialN,trials_3.thisN,trials_3.thisIndex,trials_3.ran
,0,0,0,0,1,1,ANT_images/none.png,ANT_images/incong_r.png,0.25,i,0.1,0,0.5,issue,2020-07-19_16h20.36.985,ANT,2020.1.3,Win32,60,,,,,,,,,,,,,,,,,,,,,,,,
i,1,0,1,1,23,1,ANT_images/center.png,ANT_images/incong_r.png,0.25,i,0.4,0.1,0.9,issue,2020-07-19_16h20.36.985,ANT,2020.1.3,Win32,60,1.37702,,,,,,,,,,,,,,,,,,,,,,,
,0,0,2,2,0,1,ANT_images/none.png,ANT_images/cong_l.png,-0.25,e,0.1,0,0.5,issue,2020-07-19_16h20.36.985,ANT,2020.1.3,Win32,60,,,,,,,,,,,,,,,,,,,,,,,,
e,1,0,3,3,22,1,ANT_images/center.png,ANT_images/incong_l.png,-0.25,e,1.3,0.1,1.8,issue,2020-07-19_16h20.36.985,ANT,2020.1.3,Win32,60,0.97393,,,,,,,,,,,,,,,,,,,,,,,
e,1,0,4,4,7,1,ANT_images/center.png,ANT_images/neu_l.png,0.25,e,1.1,0.1,1.6,issue,2020-07-19_16h20.36.985,ANT,2020.1.3,Win32,60,0.72121,,,,,,,,,,,,,,,,,,,,,,,
e,1,0,5,5,19,1,ANT_images/down.png,ANT_images/incong_l.png,-0.25,e,1.3,0.1,1.8,issue,2020-07-19_16h20.36.985,ANT,2020.1.3,Win32,60,1.14631,,,,,,,,,,,,,,,,,,,,,,,
i,1,0,6,6,3,1,ANT_images/none.png,ANT_images/cong_r.png,-0.25,i,0.1,0,0.5,issue,2020-07-19_16h20.36.985,ANT,2020.1.3,Win32,60,0.77485,,,,,,,,,,,,,,,,,,,,,,,
i,1,0,7,7,14,1,ANT_images/double.png,ANT_images/neu_r.png,0.25,i,1.2,0.1,1.7,issue,2020-07-19_16h20.36.985,ANT,2020.1.3,Win32,60,0.84102,,,,,,,,,,,,,,,,,,,,,,,
i,1,0,8,8,6,1,ANT_images/center.png,ANT_images/neu_r.png,0.25,i,1,0.1,1.5,issue,2020-07-19_16h20.36.985,ANT,2020.1.3,Win32,60,0.740775,,,,,,,,,,,,,,,,,,,,,,,
e,1,0,9,9,12,1,ANT_images/double.png,ANT_images/incong_l.png,-0.25,e,1.5,0.1,2,issue,2020-07-19_16h20.36.985,ANT,2020.1.3,Win32,60,1.085185,,,,,,,,,,,,,,,,,,,,,,,
e,1,0,10,10,2,1,ANT_images/none.png,ANT_images/cong_l.png,0.25,e,0.1,0,0.5,issue,2020-07-19_16h20.36.985,ANT,2020.1.3,Win32,60,1.02032,,,,,,,,,,,,,,,,,,,,,,,
e,1,0,11,11,15,1,ANT_images/up.png,ANT_images/cong_l.png,0.25,e,1.5,0.1,2,issue,2020-07-19_16h20.36.985,ANT,2020.1.3,Win32,60,0.90197,,,,,,,,,,,,,,,,,,,,,,,
e,1,0,12,12,16,1,ANT_images/up.png,ANT_images/neu_l.png,0.25,e,1.4,0.1,1.9,issue,2020-07-19_16h20.36.985,ANT,2020.1.3,Win32,60,0.831355,,,,,,,,,,,,,,,,,,,,,,,
i,1,0,13,13,8,1,ANT_images/center.png,ANT_images/cong_r.png,0.25,i,1.4,0.1,1.9,issue,2020-07-19_16h20.36.985,ANT,2020.1.3,Win32,60,0.658065,,,,,,,,,,,,,,,,,,,,,,,
i,1,0,14,14,4,1,ANT_images/none.png,ANT_images/cong_r.png,0.25,i,0.1,0,0.5,issue,2020-07-19_16h20.36.985,ANT,2020.1.3,Win32,60,0.66459,,,,,,,,,,,,,,,,,,,,,,,
i,1,0,15,15,10,1,ANT_images/double.png,ANT_images/neu_r.png,-0.25,i,0.7,0.1,1.2,issue,2020-07-19_16h20.36.985,ANT,2020.1.3,Win32,60,1.08827,,,,,,,,,,,,,,,,,,,,,,,
e,1,0,16,16,18,1,ANT_images/down.png,ANT_images/cong_l.png,-0.25,e,1.2,0.1,1.7,issue,2020-07-19_16h20.36.985,ANT,2020.1.3,Win32,60,0.770865,,,,,,,,,,,,,,,,,,,,,,,
i,1,0,17,17,13,1,ANT_images/double.png,ANT_images/cong_r.png,0.25,i,1.3,0.1,1.8,issue,2020-07-19_16h20.36.985,ANT,2020.1.3,Win32,60,0.70177,,,,,,,,,,,,,,,,,,,,,,,
e,1,0,18,18,5,1,ANT_images/center.png,ANT_images/neu_l.png,-0.25,e,0.8,0.1,1.3,issue,2020-07-19_16h20.36.985,ANT,2020.1.3,Win32,60,0.93505,,,,,,,,,,,,,,,,,,,,,,,
i,1,0,19,19,21,1,ANT_images/none.png,ANT_images/neu_r.png,0.25,i,0.1,0,0.5,issue,2020-07-19_16h20.36.985,ANT,2020.1.3,Win32,60,0.668345,,,,,,,,,,,,,,,,,,,,,,,
i,1,0,20,20,17,1,ANT_images/up.png,ANT_images/incong_r.png,0.25,i,0.9,0.1,1.4,issue,2020-07-19_16h20.36.985,ANT,2020.1.3,Win32,60,0.884205,,,,,,,,,,,,,,,,,,,,,,,
i,1,0,21,21,20,1,ANT_images/down.png,ANT_images/incong_r.png,-0.25,i,1,0.1,1.5,issue,2020-07-19_16h20.36.985,ANT,2020.1.3,Win32,60,0.92002,,,,,,,,,,,,,,,,,,,,,,,
i,1,0,22,22,9,1,ANT_images/center.png,ANT_images/neu_r.png,0.25,i,1,0.1,1.5,issue,2020-07-19_16h20.36.985,ANT,2020.1.3,Win32,60,0.84402,,,,,,,,,,,,,,,,,,,,,,,
i,1,0,23,23,11,1,ANT_images/double.png,ANT_images/incong_r.png,-0.25,i,1.6,0.1,2.1,issue,2020-07-19_16h20.36.985,ANT,2020.1.3,Win32,60,0.95794,,,,,,,,,,,,,,,,,,,,,,,
,,,,,,,ANT_images/center.png,ANT_images/cong_r.png,0.25,i,1.4,0.1,1.9,issue,2020-07-19_16h20.36.985,ANT,2020.1.3,Win32,60,,space,5.87628,space,6.903865,,0,0,0,0,15,1,0.3,,,,,,,,,,,
,,,,,,,ANT_images/double.png,ANT_images/neu_l.png,0.25,e,0.6,0.1,1.1,issue,2020-07-19_16h20.36.985,ANT,2020.1.3,Win32,60,,,,,,,0,0,1,1,24,1,1.1,,,,,,,,,,,
,,,,,,,ANT_images/none.png,ANT_images/cong_r.png,0.25,i,0.1,0,0.5,issue,2020-07-19_16h20.36.985,ANT,2020.1.3,Win32,60,,,,,,i,1,0,2,2,3,1,1.6,1.210435,,,,,,,,,,
,,,,,,,ANT_images/none.png,ANT_images/neu_r.png,-0.25,i,0.1,0,0.5,issue,2020-07-19_16h20.36.985,ANT,2020.1.3,Win32,60,,,,,,i,1,0,3,3,7,1,1.6,1.37087,,,,,,,,,,
,,,,,,,ANT_images/center.png,ANT_images/incong_l.png,0.25,e,0.5,0.1,1,issue,2020-07-19_16h20.36.985,ANT,2020.1.3,Win32,60,,,,,,,0,0,4,4,16,1,1.2,,,,,,,,,,,
,,,,,,,ANT_images/center.png,ANT_images/cong_r.png,-0.25,i,1.6,0.1,2.1,issue,2020-07-19_16h20.36.985,ANT,2020.1.3,Win32,60,,,,,,,0,0,5,5,21,1,0.1,,,,,,,,,,,
,,,,,,,ANT_images/double.png,ANT_images/neu_r.png,0.25,i,1.2,0.1,1.7,issue,2020-07-19_16h20.36.985,ANT,2020.1.3,Win32,60,,,,,,,0,0,6,6,25,1,0.5,,,,,,,,,,,
,,,,,,,ANT_images/center.png,ANT_images/neu_r.png,0.25,i,1,0.1,1.5,issue,2020-07-19_16h20.36.985,ANT,2020.1.3,Win32,60,,,,,,,0,0,7,7,13,1,0.7,,,,,,,,,,,
,,,,,,,ANT_images/down.png,ANT_images/incong_l.png,-0.25,e,1.3,0.1,1.8,issue,2020-07-19_16h20.36.985,ANT,2020.1.3,Win32,60,,,,,,,0,0,8,8,46,1,0.4,,,,,,,,,,,
,,,,,,,ANT_images/double.png,ANT_images/incong_r.png,-0.25,i,1.6,0.1,2.1,issue,2020-07-19_16h20.36.985,ANT,2020.1.3,Win32,60,,,,,,,0,0,9,9,35,1,0.1,,,,,,,,,,,
,,,,,,,ANT_images/center.png,ANT_images/incong_r.png,0.25,i,0.4,0.1,0.9,issue,2020-07-19_16h20.36.985,ANT,2020.1.3,Win32,60,,,,,,,0,0,10,10,17,1,1.3,,,,,,,,,,,
,,,,,,,ANT_images/none.png,ANT_images/incong_l.png,0.25,e,0.1,0,0.5,issue,2020-07-19_16h20.36.985,ANT,2020.1.3,Win32,60,,,,,,e,1,0,11,11,4,1,1.6,1.334605,,,,,,,,,,
,,,,,,,ANT_images/none.png,ANT_images/neu_l.png,-0.25,e,0.1,0,0.5,issue,2020-07-19_16h20.36.985,ANT,2020.1.3,Win32,60,,,,,,e,1,0,12,12,6,1,1.6,1.40509,,,,,,,,,,
,,,,,,,ANT_images/center.png,ANT_images/neu_l.png,0.25,e,1.1,0.1,1.6,issue,2020-07-19_16h20.36.985,ANT,2020.1.3,Win32,60,,,,,,,0,0,13,13,12,1,0.6,,,,,,,,,,,
,,,,,,,ANT_images/center.png,ANT_images/cong_l.png,-0.25,e,1.5,0.1,2,issue,2020-07-19_16h20.36.985,ANT,2020.1.3,Win32,60,,,,,,,0,0,14,14,20,1,0.2,,,,,,,,,,,
,,,,,,,ANT_images/double.png,ANT_images/cong_l.png,-0.25,e,0.4,0.1,0.9,issue,2020-07-19_16h20.36.985,ANT,2020.1.3,Win32,60,,,,,,,0,0,15,15,32,1,1.3,,,,,,,,,,,
,,,,,,,ANT_images/none.png,ANT_images/cong_l.png,0.25,e,0.1,0,0.5,issue,2020-07-19_16h20.36.985,ANT,2020.1.3,Win32,60,,,,,,e,1,0,16,16,2,1,1.6,1.40612,,,,,,,,,,
,,,,,,,ANT_images/double.png,ANT_images/cong_r.png,0.25,i,1.3,0.1,1.8,issue,2020-07-19_16h20.36.985,ANT,2020.1.3,Win32,60,,,,,,,0,0,17,17,27,1,0.4,,,,,,,,,,,
,,,,,,,ANT_images/double.png,ANT_images/cong_r.png,-0.25,i,1.1,0.1,1.6,issue,2020-07-19_16h20.36.985,ANT,2020.1.3,Win32,60,,,,,,,0,0,18,18,33,1,0.6,,,,,,,,,,,
,,,,,,,ANT_images/down.png,ANT_images/cong_l.png,-0.25,e,1.2,0.1,1.7,issue,2020-07-19_16h20.36.985,ANT,2020.1.3,Win32,60,,,,,,,0,0,19,19,44,1,0.5,,,,,,,,,,,
,,,,,,,ANT_images/center.png,ANT_images/neu_r.png,-0.25,i,0.7,0.1,1.2,issue,2020-07-19_16h20.36.985,ANT,2020.1.3,Win32,60,,,,,,,0,0,20,20,19,1,1,,,,,,,,,,,
,,,,,,,ANT_images/none.png,ANT_images/incong_r.png,-0.25,i,0.1,0,0.5,issue,2020-07-19_16h20.36.985,ANT,2020.1.3,Win32,60,,,,,,i,1,0,21,21,11,1,1.6,1.467335,,,,,,,,,,
,,,,,,,ANT_images/none.png,ANT_images/cong_l.png,-0.25,e,0.1,0,0.5,issue,2020-07-19_16h20.36.985,ANT,2020.1.3,Win32,60,,,,,,e,1,0,22,22,8,1,1.6,1.279705,,,,,,,,,,
,,,,,,,ANT_images/center.png,ANT_images/cong_l.png,0.25,e,1.2,0.1,1.7,issue,2020-07-19_16h20.36.985,ANT,2020.1.3,Win32,60,,,,,,,0,0,23,23,14,1,0.5,,,,,,,,,,,
,,,,,,,ANT_images/up.png,ANT_images/incong_l.png,0.25,e,0.5,0.1,1,issue,2020-07-19_16h20.36.985,ANT,2020.1.3,Win32,60,,,,,,,0,0,24,24,40,1,1.2,,,,,,,,,,,
,,,,,,,ANT_images/down.png,ANT_images/neu_r.png,-0.25,i,0.6,0.1,1.1,issue,2020-07-19_16h20.36.985,ANT,2020.1.3,Win32,60,,,,,,,0,0,25,25,43,1,1.1,,,,,,,,,,,
,,,,,,,ANT_images/none.png,ANT_images/incong_r.png,0.25,i,0.1,0,0.5,issue,2020-07-19_16h20.36.985,ANT,2020.1.3,Win32,60,,,,,,,0,0,26,26,5,1,1.6,,,,,,,,,,,
,,,,,,,ANT_images/up.png,ANT_images/cong_l.png,0.25,e,1.5,0.1,2,issue,2020-07-19_16h20.36.985,ANT,2020.1.3,Win32,60,,,,,,,0,0,27,27,38,1,0.2,,,,,,,,,,,
,,,,,,,ANT_images/double.png,ANT_images/neu_r.png,-0.25,i,0.7,0.1,1.2,issue,2020-07-19_16h20.36.985,ANT,2020.1.3,Win32,60,,,,,,,0,0,28,28,31,1,1,,,,,,,,,,,
,,,,,,,ANT_images/center.png,ANT_images/incong_r.png,-0.25,i,0.9,0.1,1.4,issue,2020-07-19_16h20.36.985,ANT,2020.1.3,Win32,60,,,,,,,0,0,29,29,23,1,0.8,,,,,,,,,,,
,,,,,,,ANT_images/double.png,ANT_images/incong_l.png,-0.25,e,1.5,0.1,2,issue,2020-07-19_16h20.36.985,ANT,2020.1.3,Win32,60,,,,,,,0,0,30,30,34,1,0.2,,,,,,,,,,,
,,,,,,,ANT_images/center.png,ANT_images/incong_l.png,-0.25,e,1.3,0.1,1.8,issue,2020-07-19_16h20.36.985,ANT,2020.1.3,Win32,60,,,,,,,0,0,31,31,22,1,0.4,,,,,,,,,,,
,,,,,,,ANT_images/double.png,ANT_images/neu_l.png,-0.25,e,0.5,0.1,1,issue,2020-07-19_16h20.36.985,ANT,2020.1.3,Win32,60,,,,,,,0,0,32,32,30,1,1.2,,,,,,,,,,,
,,,,,,,ANT_images/down.png,ANT_images/cong_r.png,-0.25,i,0.4,0.1,0.9,issue,2020-07-19_16h20.36.985,ANT,2020.1.3,Win32,60,,,,,,i,1,0,33,33,45,1,1.3,1.58141,,,,,,,,,,
,,,,,,,ANT_images/up.png,ANT_images/incong_r.png,0.25,i,0.9,0.1,1.4,issue,2020-07-19_16h20.36.985,ANT,2020.1.3,Win32,60,,,,,,,0,0,34,34,41,1,0.8,,,,,,,,,,,
,,,,,,,ANT_images/double.png,ANT_images/incong_l.png,0.25,e,1,0.1,1.5,issue,2020-07-19_16h20.36.985,ANT,2020.1.3,Win32,60,,,,,,,0,0,35,35,28,1,0.7,,,,,,,,,,,
,,,,,,,ANT_images/none.png,ANT_images/neu_r.png,0.25,i,0.1,0,0.5,issue,2020-07-19_16h20.36.985,ANT,2020.1.3,Win32,60,,,,,,i,1,0,36,36,1,1,1.6,1.236,,,,,,,,,,
,,,,,,,ANT_images/none.png,ANT_images/incong_l.png,-0.25,e,0.1,0,0.5,issue,2020-07-19_16h20.36.985,ANT,2020.1.3,Win32,60,,,,,,e,1,0,37,37,10,1,1.6,1.36946,,,,,,,,,,
,,,,,,,ANT_images/down.png,ANT_images/incong_r.png,-0.25,i,1,0.1,1.5,issue,2020-07-19_16h20.36.985,ANT,2020.1.3,Win32,60,,,,,,,0,0,38,38,47,1,0.7,,,,,,,,,,,
,,,,,,,ANT_images/up.png,ANT_images/neu_l.png,0.25,e,1.4,0.1,1.9,issue,2020-07-19_16h20.36.985,ANT,2020.1.3,Win32,60,,,,,,,0,0,39,39,36,1,0.3,,,,,,,,,,,
,,,,,,,ANT_images/double.png,ANT_images/cong_l.png,0.25,e,0.6,0.1,1.1,issue,2020-07-19_16h20.36.985,ANT,2020.1.3,Win32,60,,,,,,,0,0,40,40,26,1,1.1,,,,,,,,,,,
,,,,,,,ANT_images/up.png,ANT_images/neu_r.png,0.25,i,0.8,0.1,1.3,issue,2020-07-19_16h20.36.985,ANT,2020.1.3,Win32,60,,,,,,,0,0,41,41,37,1,0.9,,,,,,,,,,,
,,,,,,,ANT_images/up.png,ANT_images/cong_r.png,0.25,i,1.4,0.1,1.9,issue,2020-07-19_16h20.36.985,ANT,2020.1.3,Win32,60,,,,,,,0,0,42,42,39,1,0.3,,,,,,,,,,,
,,,,,,,ANT_images/none.png,ANT_images/neu_l.png,0.25,e,0.1,0,0.5,issue,2020-07-19_16h20.36.985,ANT,2020.1.3,Win32,60,,,,,,e,1,0,43,43,0,1,1.6,1.184155,,,,,,,,,,
,,,,,,,ANT_images/center.png,ANT_images/neu_l.png,-0.25,e,0.8,0.1,1.3,issue,2020-07-19_16h20.36.985,ANT,2020.1.3,Win32,60,,,,,,,0,0,44,44,18,1,0.9,,,,,,,,,,,
,,,,,,,ANT_images/double.png,ANT_images/incong_r.png,0.25,i,0.9,0.1,1.4,issue,2020-07-19_16h20.36.985,ANT,2020.1.3,Win32,60,,,,,,,0,0,45,45,29,1,0.8,,,,,,,,,,,
,,,,,,,ANT_images/down.png,ANT_images/neu_l.png,-0.25,e,0.8,0.1,1.3,issue,2020-07-19_16h20.36.985,ANT,2020.1.3,Win32,60,,,,,,,0,0,46,46,42,1,0.9,,,,,,,,,,,
,,,,,,,ANT_images/none.png,ANT_images/cong_r.png,-0.25,i,0.1,0,0.5,issue,2020-07-19_16h20.36.985,ANT,2020.1.3,Win32,60,,,,,,i,1,0,47,47,9,1,1.6,1.286975,,,,,,,,,,
,,,,,,,ANT_images/double.png,ANT_images/neu_r.png,-0.25,i,0.7,0.1,1.2,issue,2020-07-19_16h20.36.985,ANT,2020.1.3,Win32,60,,,,,,,0,1,0,48,31,1,1,,,,,,,,,,,
,,,,,,,ANT_images/center.png,ANT_images/incong_l.png,0.25,e,0.5,0.1,1,issue,2020-07-19_16h20.36.985,ANT,2020.1.3,Win32,60,,,,,,,0,1,1,49,16,1,1.2,,,,,,,,,,,
,,,,,,,ANT_images/double.png,ANT_images/incong_l.png,-0.25,e,1.5,0.1,2,issue,2020-07-19_16h20.36.985,ANT,2020.1.3,Win32,60,,,,,,,0,1,2,50,34,1,0.2,,,,,,,,,,,
,,,,,,,ANT_images/double.png,ANT_images/neu_l.png,0.25,e,0.6,0.1,1.1,issue,2020-07-19_16h20.36.985,ANT,2020.1.3,Win32,60,,,,,,,0,1,3,51,24,1,1.1,,,,,,,,,,,
,,,,,,,ANT_images/none.png,ANT_images/neu_l.png,-0.25,e,0.1,0,0.5,issue,2020-07-19_16h20.36.985,ANT,2020.1.3,Win32,60,,,,,,e,1,1,4,52,6,1,1.6,1.306795,,,,,,,,,,
,,,,,,,ANT_images/double.png,ANT_images/cong_r.png,-0.25,i,1.1,0.1,1.6,issue,2020-07-19_16h20.36.985,ANT,2020.1.3,Win32,60,,,,,,,0,1,5,53,33,1,0.6,,,,,,,,,,,
,,,,,,,ANT_images/double.png,ANT_images/neu_l.png,-0.25,e,0.5,0.1,1,issue,2020-07-19_16h20.36.985,ANT,2020.1.3,Win32,60,,,,,,e,1,1,6,54,30,1,1.2,1.619005,,,,,,,,,,
,,,,,,,ANT_images/none.png,ANT_images/incong_l.png,0.25,e,0.1,0,0.5,issue,2020-07-19_16h20.36.985,ANT,2020.1.3,Win32,60,,,,,,e,1,1,7,55,4,1,1.6,1.226605,,,,,,,,,,
,,,,,,,ANT_images/down.png,ANT_images/neu_r.png,-0.25,i,0.6,0.1,1.1,issue,2020-07-19_16h20.36.985,ANT,2020.1.3,Win32,60,,,,,,,0,1,8,56,43,1,1.1,,,,,,,,,,,
,,,,,,,ANT_images/down.png,ANT_images/cong_r.png,-0.25,i,0.4,0.1,0.9,issue,2020-07-19_16h20.36.985,ANT,2020.1.3,Win32,60,,,,,,i,1,1,9,57,45,1,1.3,1.622145,,,,,,,,,,
,,,,,,,ANT_images/center.png,ANT_images/incong_r.png,-0.25,i,0.9,0.1,1.4,issue,2020-07-19_16h20.36.985,ANT,2020.1.3,Win32,60,,,,,,,0,1,10,58,23,1,0.8,,,,,,,,,,,
,,,,,,,ANT_images/none.png,ANT_images/cong_l.png,-0.25,e,0.1,0,0.5,issue,2020-07-19_16h20.36.985,ANT,2020.1.3,Win32,60,,,,,,e,1,1,11,59,8,1,1.6,1.109665,,,,,,,,,,
,,,,,,,ANT_images/up.png,ANT_images/incong_l.png,0.25,e,0.5,0.1,1,issue,2020-07-19_16h20.36.985,ANT,2020.1.3,Win32,60,,,,,,,0,1,12,60,40,1,1.2,,,,,,,,,,,
,,,,,,,ANT_images/double.png,ANT_images/incong_r.png,0.25,i,0.9,0.1,1.4,issue,2020-07-19_16h20.36.985,ANT,2020.1.3,Win32,60,,,,,,,0,1,13,61,29,1,0.8,,,,,,,,,,,
,,,,,,,ANT_images/none.png,ANT_images/neu_r.png,-0.25,i,0.1,0,0.5,issue,2020-07-19_16h20.36.985,ANT,2020.1.3,Win32,60,,,,,,i,1,1,14,62,7,1,1.6,1.20832,,,,,,,,,,
,,,,,,,ANT_images/none.png,ANT_images/cong_r.png,-0.25,i,0.1,0,0.5,issue,2020-07-19_16h20.36.985,ANT,2020.1.3,Win32,60,,,,,,i,1,1,15,63,9,1,1.6,1.28699,,,,,,,,,,
,,,,,,,ANT_images/down.png,ANT_images/cong_l.png,-0.25,e,1.2,0.1,1.7,issue,2020-07-19_16h20.36.985,ANT,2020.1.3,Win32,60,,,,,,,0,1,16,64,44,1,0.5,,,,,,,,,,,
,,,,,,,ANT_images/center.png,ANT_images/incong_l.png,-0.25,e,1.3,0.1,1.8,issue,2020-07-19_16h20.36.985,ANT,2020.1.3,Win32,60,,,,,,,0,1,17,65,22,1,0.4,,,,,,,,,,,
,,,,,,,ANT_images/center.png,ANT_images/cong_l.png,-0.25,e,1.5,0.1,2,issue,2020-07-19_16h20.36.985,ANT,2020.1.3,Win32,60,,,,,,,0,1,18,66,20,1,0.2,,,,,,,,,,,
,,,,,,,ANT_images/down.png,ANT_images/incong_l.png,-0.25,e,1.3,0.1,1.8,issue,2020-07-19_16h20.36.985,ANT,2020.1.3,Win32,60,,,,,,,0,1,19,67,46,1,0.4,,,,,,,,,,,
,,,,,,,ANT_images/double.png,ANT_images/cong_r.png,0.25,i,1.3,0.1,1.8,issue,2020-07-19_16h20.36.985,ANT,2020.1.3,Win32,60,,,,,,,0,1,20,68,27,1,0.4,,,,,,,,,,,
,,,,,,,ANT_images/none.png,ANT_images/neu_l.png,0.25,e,0.1,0,0.5,issue,2020-07-19_16h20.36.985,ANT,2020.1.3,Win32,60,,,,,,e,1,1,21,69,0,1,1.6,1.57538,,,,,,,,,,
,,,,,,,ANT_images/none.png,ANT_images/cong_r.png,0.25,i,0.1,0,0.5,issue,2020-07-19_16h20.36.985,ANT,2020.1.3,Win32,60,,,,,,i,1,1,22,70,3,1,1.6,1.287315,,,,,,,,,,
,,,,,,,ANT_images/center.png,ANT_images/cong_l.png,0.25,e,1.2,0.1,1.7,issue,2020-07-19_16h20.36.985,ANT,2020.1.3,Win32,60,,,,,,,0,1,23,71,14,1,0.5,,,,,,,,,,,
,,,,,,,ANT_images/double.png,ANT_images/cong_l.png,-0.25,e,0.4,0.1,0.9,issue,2020-07-19_16h20.36.985,ANT,2020.1.3,Win32,60,,,,,,,0,1,24,72,32,1,1.3,,,,,,,,,,,
,,,,,,,ANT_images/center.png,ANT_images/incong_r.png,0.25,i,0.4,0.1,0.9,issue,2020-07-19_16h20.36.985,ANT,2020.1.3,Win32,60,,,,,,,0,1,25,73,17,1,1.3,,,,,,,,,,,
,,,,,,,ANT_images/double.png,ANT_images/neu_r.png,0.25,i,1.2,0.1,1.7,issue,2020-07-19_16h20.36.985,ANT,2020.1.3,Win32,60,,,,,,,0,1,26,74,25,1,0.5,,,,,,,,,,,
,,,,,,,ANT_images/center.png,ANT_images/cong_r.png,-0.25,i,1.6,0.1,2.1,issue,2020-07-19_16h20.36.985,ANT,2020.1.3,Win32,60,,,,,,,0,1,27,75,21,1,0.1,,,,,,,,,,,
,,,,,,,ANT_images/center.png,ANT_images/cong_r.png,0.25,i,1.4,0.1,1.9,issue,2020-07-19_16h20.36.985,ANT,2020.1.3,Win32,60,,,,,,,0,1,28,76,15,1,0.3,,,,,,,,,,,
,,,,,,,ANT_images/none.png,ANT_images/cong_l.png,0.25,e,0.1,0,0.5,issue,2020-07-19_16h20.36.985,ANT,2020.1.3,Win32,60,,,,,,e,1,1,29,77,2,1,1.6,1.14294,,,,,,,,,,
,,,,,,,ANT_images/none.png,ANT_images/incong_l.png,-0.25,e,0.1,0,0.5,issue,2020-07-19_16h20.36.985,ANT,2020.1.3,Win32,60,,,,,,e,1,1,30,78,10,1,1.6,1.290135,,,,,,,,,,
,,,,,,,ANT_images/none.png,ANT_images/incong_r.png,0.25,i,0.1,0,0.5,issue,2020-07-19_16h20.36.985,ANT,2020.1.3,Win32,60,,,,,,i,1,1,31,79,5,1,1.6,1.15384,,,,,,,,,,
,,,,,,,ANT_images/up.png,ANT_images/cong_r.png,0.25,i,1.4,0.1,1.9,issue,2020-07-19_16h20.36.985,ANT,2020.1.3,Win32,60,,,,,,,0,1,32,80,39,1,0.3,,,,,,,,,,,
,,,,,,,ANT_images/center.png,ANT_images/neu_r.png,0.25,i,1,0.1,1.5,issue,2020-07-19_16h20.36.985,ANT,2020.1.3,Win32,60,,,,,,,0,1,33,81,13,1,0.7,,,,,,,,,,,
,,,,,,,ANT_images/double.png,ANT_images/cong_l.png,0.25,e,0.6,0.1,1.1,issue,2020-07-19_16h20.36.985,ANT,2020.1.3,Win32,60,,,,,,,0,1,34,82,26,1,1.1,,,,,,,,,,,
,,,,,,,ANT_images/center.png,ANT_images/neu_l.png,0.25,e,1.1,0.1,1.6,issue,2020-07-19_16h20.36.985,ANT,2020.1.3,Win32,60,,,,,,,0,1,35,83,12,1,0.6,,,,,,,,,,,
,,,,,,,ANT_images/down.png,ANT_images/incong_r.png,-0.25,i,1,0.1,1.5,issue,2020-07-19_16h20.36.985,ANT,2020.1.3,Win32,60,,,,,,,0,1,36,84,47,1,0.7,,,,,,,,,,,
,,,,,,,ANT_images/none.png,ANT_images/neu_r.png,0.25,i,0.1,0,0.5,issue,2020-07-19_16h20.36.985,ANT,2020.1.3,Win32,60,,,,,,i,1,1,37,85,1,1,1.6,1.05129,,,,,,,,,,
,,,,,,,ANT_images/up.png,ANT_images/cong_l.png,0.25,e,1.5,0.1,2,issue,2020-07-19_16h20.36.985,ANT,2020.1.3,Win32,60,,,,,,,0,1,38,86,38,1,0.2,,,,,,,,,,,
,,,,,,,ANT_images/up.png,ANT_images/neu_l.png,0.25,e,1.4,0.1,1.9,issue,2020-07-19_16h20.36.985,ANT,2020.1.3,Win32,60,,,,,,,0,1,39,87,36,1,0.3,,,,,,,,,,,
,,,,,,,ANT_images/center.png,ANT_images/neu_l.png,-0.25,e,0.8,0.1,1.3,issue,2020-07-19_16h20.36.985,ANT,2020.1.3,Win32,60,,,,,,,0,1,40,88,18,1,0.9,,,,,,,,,,,
,,,,,,,ANT_images/center.png,ANT_images/neu_r.png,-0.25,i,0.7,0.1,1.2,issue,2020-07-19_16h20.36.985,ANT,2020.1.3,Win32,60,,,,,,,0,1,41,89,19,1,1,,,,,,,,,,,
,,,,,,,ANT_images/down.png,ANT_images/neu_l.png,-0.25,e,0.8,0.1,1.3,issue,2020-07-19_16h20.36.985,ANT,2020.1.3,Win32,60,,,,,,,0,1,42,90,42,1,0.9,,,,,,,,,,,
,,,,,,,ANT_images/double.png,ANT_images/incong_r.png,-0.25,i,1.6,0.1,2.1,issue,2020-07-19_16h20.36.985,ANT,2020.1.3,Win32,60,,,,,,,0,1,43,91,35,1,0.1,,,,,,,,,,,
,,,,,,,ANT_images/none.png,ANT_images/incong_r.png,-0.25,i,0.1,0,0.5,issue,2020-07-19_16h20.36.985,ANT,2020.1.3,Win32,60,,,,,,i,1,1,44,92,11,1,1.6,1.499655,,,,,,,,,,
,,,,,,,ANT_images/up.png,ANT_images/neu_r.png,0.25,i,0.8,0.1,1.3,issue,2020-07-19_16h20.36.985,ANT,2020.1.3,Win32,60,,,,,,,0,1,45,93,37,1,0.9,,,,,,,,,,,
,,,,,,,ANT_images/up.png,ANT_images/incong_r.png,0.25,i,0.9,0.1,1.4,issue,2020-07-19_16h20.36.985,ANT,2020.1.3,Win32,60,,,,,,,0,1,46,94,41,1,0.8,,,,,,,,,,,
,,,,,,,ANT_images/double.png,ANT_images/incong_l.png,0.25,e,1,0.1,1.5,issue,2020-07-19_16h20.36.985,ANT,2020.1.3,Win32,60,,,,,,,0,1,47,95,28,1,0.7,,,,,,,,,,,
,,,,,,,,,,,,,,issue,2020-07-19_16h20.36.985,ANT,2020.1.3,Win32,60,,,,,,,,,,,,,,,0,0,0,0,1,,,,,
,,,,,,,ANT_images/down.png,ANT_images/incong_r.png,-0.25,i,1,0.1,1.5,issue,2020-07-19_16h20.36.985,ANT,2020.1.3,Win32,60,,,,,,,0,0,0,0,47,1,0.7,,,,,,,,,,,
,,,,,,,ANT_images/center.png,ANT_images/neu_l.png,-0.25,e,0.8,0.1,1.3,issue,2020-07-19_16h20.36.985,ANT,2020.1.3,Win32,60,,,,,,,0,0,1,1,18,1,0.9,,,,,,,,,,,
,,,,,,,ANT_images/up.png,ANT_images/incong_r.png,0.25,i,0.9,0.1,1.4,issue,2020-07-19_16h20.36.985,ANT,2020.1.3,Win32,60,,,,,,,0,0,2,2,41,1,0.8,,,,,,,,,,,
,,,,,,,ANT_images/center.png,ANT_images/neu_r.png,0.25,i,1,0.1,1.5,issue,2020-07-19_16h20.36.985,ANT,2020.1.3,Win32,60,,,,,,,0,0,3,3,13,1,0.7,,,,,,,,,,,
,,,,,,,ANT_images/none.png,ANT_images/cong_l.png,-0.25,e,0.1,0,0.5,issue,2020-07-19_16h20.36.985,ANT,2020.1.3,Win32,60,,,,,,e,1,0,4,4,8,1,1.6,1.14401,,,,,,,,,,
,,,,,,,ANT_images/none.png,ANT_images/neu_r.png,-0.25,i,0.1,0,0.5,issue,2020-07-19_16h20.36.985,ANT,2020.1.3,Win32,60,,,,,,i,1,0,5,5,7,1,1.6,1.282165,,,,,,,,,,
,,,,,,,ANT_images/center.png,ANT_images/neu_r.png,-0.25,i,0.7,0.1,1.2,issue,2020-07-19_16h20.36.985,ANT,2020.1.3,Win32,60,,,,,,,0,0,6,6,19,1,1,,,,,,,,,,,
,,,,,,,ANT_images/center.png,ANT_images/neu_l.png,0.25,e,1.1,0.1,1.6,issue,2020-07-19_16h20.36.985,ANT,2020.1.3,Win32,60,,,,,,,0,0,7,7,12,1,0.6,,,,,,,,,,,
,,,,,,,ANT_images/double.png,ANT_images/neu_r.png,0.25,i,1.2,0.1,1.7,issue,2020-07-19_16h20.36.985,ANT,2020.1.3,Win32,60,,,,,,,0,0,8,8,25,1,0.5,,,,,,,,,,,
,,,,,,,ANT_images/double.png,ANT_images/neu_r.png,-0.25,i,0.7,0.1,1.2,issue,2020-07-19_16h20.36.985,ANT,2020.1.3,Win32,60,,,,,,,0,0,9,9,31,1,1,,,,,,,,,,,
,,,,,,,ANT_images/up.png,ANT_images/cong_r.png,0.25,i,1.4,0.1,1.9,issue,2020-07-19_16h20.36.985,ANT,2020.1.3,Win32,60,,,,,,,0,0,10,10,39,1,0.3,,,,,,,,,,,
,,,,,,,ANT_images/double.png,ANT_images/neu_l.png,0.25,e,0.6,0.1,1.1,issue,2020-07-19_16h20.36.985,ANT,2020.1.3,Win32,60,,,,,,,0,0,11,11,24,1,1.1,,,,,,,,,,,
,,,,,,,ANT_images/double.png,ANT_images/incong_r.png,-0.25,i,1.6,0.1,2.1,issue,2020-07-19_16h20.36.985,ANT,2020.1.3,Win32,60,,,,,,,0,0,12,12,35,1,0.1,,,,,,,,,,,
,,,,,,,ANT_images/none.png,ANT_images/cong_r.png,0.25,i,0.1,0,0.5,issue,2020-07-19_16h20.36.985,ANT,2020.1.3,Win32,60,,,,,,i,1,0,13,13,3,1,1.6,1.512855,,,,,,,,,,
,,,,,,,ANT_images/down.png,ANT_images/cong_r.png,-0.25,i,0.4,0.1,0.9,issue,2020-07-19_16h20.36.985,ANT,2020.1.3,Win32,60,,,,,,i,1,0,14,14,45,1,1.3,1.573555,,,,,,,,,,
,,,,,,,ANT_images/down.png,ANT_images/cong_l.png,-0.25,e,1.2,0.1,1.7,issue,2020-07-19_16h20.36.985,ANT,2020.1.3,Win32,60,,,,,,,0,0,15,15,44,1,0.5,,,,,,,,,,,
,,,,,,,ANT_images/none.png,ANT_images/incong_l.png,-0.25,e,0.1,0,0.5,issue,2020-07-19_16h20.36.985,ANT,2020.1.3,Win32,60,,,,,,,0,0,16,16,10,1,1.6,,,,,,,,,,,
,,,,,,,ANT_images/center.png,ANT_images/cong_l.png,0.25,e,1.2,0.1,1.7,issue,2020-07-19_16h20.36.985,ANT,2020.1.3,Win32,60,,,,,,,0,0,17,17,14,1,0.5,,,,,,,,,,,
,,,,,,,ANT_images/double.png,ANT_images/incong_l.png,0.25,e,1,0.1,1.5,issue,2020-07-19_16h20.36.985,ANT,2020.1.3,Win32,60,,,,,,,0,0,18,18,28,1,0.7,,,,,,,,,,,
,,,,,,,ANT_images/none.png,ANT_images/incong_r.png,-0.25,i,0.1,0,0.5,issue,2020-07-19_16h20.36.985,ANT,2020.1.3,Win32,60,,,,,,i,1,0,19,19,11,1,1.6,1.255005,,,,,,,,,,
,,,,,,,ANT_images/center.png,ANT_images/incong_r.png,0.25,i,0.4,0.1,0.9,issue,2020-07-19_16h20.36.985,ANT,2020.1.3,Win32,60,,,,,,,0,0,20,20,17,1,1.3,,,,,,,,,,,
,,,,,,,ANT_images/center.png,ANT_images/incong_l.png,-0.25,e,1.3,0.1,1.8,issue,2020-07-19_16h20.36.985,ANT,2020.1.3,Win32,60,,,,,,,0,0,21,21,22,1,0.4,,,,,,,,,,,
,,,,,,,ANT_images/double.png,ANT_images/incong_r.png,0.25,i,0.9,0.1,1.4,issue,2020-07-19_16h20.36.985,ANT,2020.1.3,Win32,60,,,,,,,0,0,22,22,29,1,0.8,,,,,,,,,,,
,,,,,,,ANT_images/none.png,ANT_images/neu_l.png,0.25,e,0.1,0,0.5,issue,2020-07-19_16h20.36.985,ANT,2020.1.3,Win32,60,,,,,,e,1,0,23,23,0,1,1.6,1.15531,,,,,,,,,,
,,,,,,,ANT_images/double.png,ANT_images/cong_r.png,0.25,i,1.3,0.1,1.8,issue,2020-07-19_16h20.36.985,ANT,2020.1.3,Win32,60,,,,,,,0,0,24,24,27,1,0.4,,,,,,,,,,,
,,,,,,,ANT_images/down.png,ANT_images/neu_l.png,-0.25,e,0.8,0.1,1.3,issue,2020-07-19_16h20.36.985,ANT,2020.1.3,Win32,60,,,,,,,0,0,25,25,42,1,0.9,,,,,,,,,,,
,,,,,,,ANT_images/up.png,ANT_images/incong_l.png,0.25,e,0.5,0.1,1,issue,2020-07-19_16h20.36.985,ANT,2020.1.3,Win32,60,,,,,,e,1,0,26,26,40,1,1.2,1.634075,,,,,,,,,,
,,,,,,,ANT_images/none.png,ANT_images/incong_r.png,0.25,i,0.1,0,0.5,issue,2020-07-19_16h20.36.985,ANT,2020.1.3,Win32,60,,,,,,i,1,0,27,27,5,1,1.6,1.17355,,,,,,,,,,
,,,,,,,ANT_images/double.png,ANT_images/cong_l.png,-0.25,e,0.4,0.1,0.9,issue,2020-07-19_16h20.36.985,ANT,2020.1.3,Win32,60,,,,,,e,1,0,28,28,32,1,1.3,1.55961,,,,,,,,,,
,,,,,,,ANT_images/up.png,ANT_images/neu_r.png,0.25,i,0.8,0.1,1.3,issue,2020-07-19_16h20.36.985,ANT,2020.1.3,Win32,60,,,,,,,0,0,29,29,37,1,0.9,,,,,,,,,,,
,,,,,,,ANT_images/up.png,ANT_images/neu_l.png,0.25,e,1.4,0.1,1.9,issue,2020-07-19_16h20.36.985,ANT,2020.1.3,Win32,60,,,,,,,0,0,30,30,36,1,0.3,,,,,,,,,,,
,,,,,,,ANT_images/center.png,ANT_images/incong_l.png,0.25,e,0.5,0.1,1,issue,2020-07-19_16h20.36.985,ANT,2020.1.3,Win32,60,,,,,,e,1,0,31,31,16,1,1.2,1.591045,,,,,,,,,,
,,,,,,,ANT_images/down.png,ANT_images/incong_l.png,-0.25,e,1.3,0.1,1.8,issue,2020-07-19_16h20.36.985,ANT,2020.1.3,Win32,60,,,,,,,0,0,32,32,46,1,0.4,,,,,,,,,,,
,,,,,,,ANT_images/up.png,ANT_images/cong_l.png,0.25,e,1.5,0.1,2,issue,2020-07-19_16h20.36.985,ANT,2020.1.3,Win32,60,,,,,,,0,0,33,33,38,1,0.2,,,,,,,,,,,
,,,,,,,ANT_images/none.png,ANT_images/neu_l.png,-0.25,e,0.1,0,0.5,issue,2020-07-19_16h20.36.985,ANT,2020.1.3,Win32,60,,,,,,e,1,0,34,34,6,1,1.6,1.203345,,,,,,,,,,
,,,,,,,ANT_images/none.png,ANT_images/cong_l.png,0.25,e,0.1,0,0.5,issue,2020-07-19_16h20.36.985,ANT,2020.1.3,Win32,60,,,,,,e,1,0,35,35,2,1,1.6,1.00065,,,,,,,,,,
,,,,,,,ANT_images/none.png,ANT_images/neu_r.png,0.25,i,0.1,0,0.5,issue,2020-07-19_16h20.36.985,ANT,2020.1.3,Win32,60,,,,,,i,1,0,36,36,1,1,1.6,1.033805,,,,,,,,,,
,,,,,,,ANT_images/center.png,ANT_images/cong_r.png,0.25,i,1.4,0.1,1.9,issue,2020-07-19_16h20.36.985,ANT,2020.1.3,Win32,60,,,,,,,0,0,37,37,15,1,0.3,,,,,,,,,,,
,,,,,,,ANT_images/none.png,ANT_images/incong_l.png,0.25,e,0.1,0,0.5,issue,2020-07-19_16h20.36.985,ANT,2020.1.3,Win32,60,,,,,,e,1,0,38,38,4,1,1.6,1.10591,,,,,,,,,,
,,,,,,,ANT_images/double.png,ANT_images/neu_l.png,-0.25,e,0.5,0.1,1,issue,2020-07-19_16h20.36.985,ANT,2020.1.3,Win32,60,,,,,,e,1,0,39,39,30,1,1.2,1.609235,,,,,,,,,,
,,,,,,,ANT_images/double.png,ANT_images/cong_l.png,0.25,e,0.6,0.1,1.1,issue,2020-07-19_16h20.36.985,ANT,2020.1.3,Win32,60,,,,,,,0,0,40,40,26,1,1.1,,,,,,,,,,,
,,,,,,,ANT_images/center.png,ANT_images/cong_l.png,-0.25,e,1.5,0.1,2,issue,2020-07-19_16h20.36.985,ANT,2020.1.3,Win32,60,,,,,,,0,0,41,41,20,1,0.2,,,,,,,,,,,
,,,,,,,ANT_images/down.png,ANT_images/neu_r.png,-0.25,i,0.6,0.1,1.1,issue,2020-07-19_16h20.36.985,ANT,2020.1.3,Win32,60,,,,,,,0,0,42,42,43,1,1.1,,,,,,,,,,,
,,,,,,,ANT_images/center.png,ANT_images/cong_r.png,-0.25,i,1.6,0.1,2.1,issue,2020-07-19_16h20.36.985,ANT,2020.1.3,Win32,60,,,,,,,0,0,43,43,21,1,0.1,,,,,,,,,,,
,,,,,,,ANT_images/center.png,ANT_images/incong_r.png,-0.25,i,0.9,0.1,1.4,issue,2020-07-19_16h20.36.985,ANT,2020.1.3,Win32,60,,,,,,,0,0,44,44,23,1,0.8,,,,,,,,,,,
,,,,,,,ANT_images/double.png,ANT_images/incong_l.png,-0.25,e,1.5,0.1,2,issue,2020-07-19_16h20.36.985,ANT,2020.1.3,Win32,60,,,,,,,0,0,45,45,34,1,0.2,,,,,,,,,,,
,,,,,,,ANT_images/none.png,ANT_images/cong_r.png,-0.25,i,0.1,0,0.5,issue,2020-07-19_16h20.36.985,ANT,2020.1.3,Win32,60,,,,,,i,1,0,46,46,9,1,1.6,1.16096,,,,,,,,,,
,,,,,,,ANT_images/double.png,ANT_images/cong_r.png,-0.25,i,1.1,0.1,1.6,issue,2020-07-19_16h20.36.985,ANT,2020.1.3,Win32,60,,,,,,,0,0,47,47,33,1,0.6,,,,,,,,,,,
,,,,,,,ANT_images/center.png,ANT_images/neu_r.png,0.25,i,1,0.1,1.5,issue,2020-07-19_16h20.36.985,ANT,2020.1.3,Win32,60,,,,,,,0,1,0,48,13,1,0.7,,,,,,,,,,,
,,,,,,,ANT_images/center.png,ANT_images/cong_l.png,0.25,e,1.2,0.1,1.7,issue,2020-07-19_16h20.36.985,ANT,2020.1.3,Win32,60,,,,,,,0,1,1,49,14,1,0.5,,,,,,,,,,,
,,,,,,,ANT_images/double.png,ANT_images/cong_r.png,-0.25,i,1.1,0.1,1.6,issue,2020-07-19_16h20.36.985,ANT,2020.1.3,Win32,60,,,,,,,0,1,2,50,33,1,0.6,,,,,,,,,,,
,,,,,,,ANT_images/double.png,ANT_images/neu_r.png,0.25,i,1.2,0.1,1.7,issue,2020-07-19_16h20.36.985,ANT,2020.1.3,Win32,60,,,,,,,0,1,3,51,25,1,0.5,,,,,,,,,,,
,,,,,,,ANT_images/center.png,ANT_images/incong_l.png,-0.25,e,1.3,0.1,1.8,issue,2020-07-19_16h20.36.985,ANT,2020.1.3,Win32,60,,,,,,,0,1,4,52,22,1,0.4,,,,,,,,,,,
,,,,,,,ANT_images/double.png,ANT_images/neu_l.png,-0.25,e,0.5,0.1,1,issue,2020-07-19_16h20.36.985,ANT,2020.1.3,Win32,60,,,,,,e,1,1,5,53,30,1,1.2,1.61681,,,,,,,,,,
,,,,,,,ANT_images/none.png,ANT_images/cong_l.png,-0.25,e,0.1,0,0.5,issue,2020-07-19_16h20.36.985,ANT,2020.1.3,Win32,60,,,,,,e,1,1,6,54,8,1,1.6,1.219225,,,,,,,,,,
,,,,,,,ANT_images/center.png,ANT_images/incong_r.png,0.25,i,0.4,0.1,0.9,issue,2020-07-19_16h20.36.985,ANT,2020.1.3,Win32,60,,,,,,,0,1,7,55,17,1,1.3,,,,,,,,,,,
,,,,,,,ANT_images/up.png,ANT_images/incong_l.png,0.25,e,0.5,0.1,1,issue,2020-07-19_16h20.36.985,ANT,2020.1.3,Win32,60,,,,,,,0,1,8,56,40,1,1.2,,,,,,,,,,,
,,,,,,,ANT_images/none.png,ANT_images/incong_l.png,0.25,e,0.1,0,0.5,issue,2020-07-19_16h20.36.985,ANT,2020.1.3,Win32,60,,,,,,e,1,1,9,57,4,1,1.6,1.282445,,,,,,,,,,
,,,,,,,ANT_images/down.png,ANT_images/neu_l.png,-0.25,e,0.8,0.1,1.3,issue,2020-07-19_16h20.36.985,ANT,2020.1.3,Win32,60,,,,,,,0,1,10,58,42,1,0.9,,,,,,,,,,,
,,,,,,,ANT_images/up.png,ANT_images/cong_r.png,0.25,i,1.4,0.1,1.9,issue,2020-07-19_16h20.36.985,ANT,2020.1.3,Win32,60,,,,,,,0,1,11,59,39,1,0.3,,,,,,,,,,,
,,,,,,,ANT_images/none.png,ANT_images/incong_r.png,-0.25,i,0.1,0,0.5,issue,2020-07-19_16h20.36.985,ANT,2020.1.3,Win32,60,,,,,,i,1,1,12,60,11,1,1.6,1.30936,,,,,,,,,,
,,,,,,,ANT_images/center.png,ANT_images/incong_l.png,0.25,e,0.5,0.1,1,issue,2020-07-19_16h20.36.985,ANT,2020.1.3,Win32,60,,,,,,,0,1,13,61,16,1,1.2,,,,,,,,,,,
,,,,,,,ANT_images/double.png,ANT_images/cong_l.png,0.25,e,0.6,0.1,1.1,issue,2020-07-19_16h20.36.985,ANT,2020.1.3,Win32,60,,,,,,,0,1,14,62,26,1,1.1,,,,,,,,,,,
,,,,,,,ANT_images/double.png,ANT_images/cong_l.png,-0.25,e,0.4,0.1,0.9,issue,2020-07-19_16h20.36.985,ANT,2020.1.3,Win32,60,,,,,,e,1,1,15,63,32,1,1.3,1.55759,,,,,,,,,,
,,,,,,,ANT_images/none.png,ANT_images/incong_r.png,0.25,i,0.1,0,0.5,issue,2020-07-19_16h20.36.985,ANT,2020.1.3,Win32,60,,,,,,i,1,1,16,64,5,1,1.6,1.18897,,,,,,,,,,
,,,,,,,ANT_images/double.png,ANT_images/neu_r.png,-0.25,i,0.7,0.1,1.2,issue,2020-07-19_16h20.36.985,ANT,2020.1.3,Win32,60,,,,,,,0,1,17,65,31,1,1,,,,,,,,,,,
,,,,,,,ANT_images/none.png,ANT_images/neu_r.png,0.25,i,0.1,0,0.5,issue,2020-07-19_16h20.36.985,ANT,2020.1.3,Win32,60,,,,,,i,1,1,18,66,1,1,1.6,1.1357,,,,,,,,,,
,,,,,,,ANT_images/center.png,ANT_images/cong_l.png,-0.25,e,1.5,0.1,2,issue,2020-07-19_16h20.36.985,ANT,2020.1.3,Win32,60,,,,,,,0,1,19,67,20,1,0.2,,,,,,,,,,,
,,,,,,,ANT_images/none.png,ANT_images/neu_l.png,-0.25,e,0.1,0,0.5,issue,2020-07-19_16h20.36.985,ANT,2020.1.3,Win32,60,,,,,,e,1,1,20,68,6,1,1.6,1.29117,,,,,,,,,,
,,,,,,,ANT_images/center.png,ANT_images/neu_l.png,0.25,e,1.1,0.1,1.6,issue,2020-07-19_16h20.36.985,ANT,2020.1.3,Win32,60,,,,,,,0,1,21,69,12,1,0.6,,,,,,,,,,,
,,,,,,,ANT_images/down.png,ANT_images/cong_l.png,-0.25,e,1.2,0.1,1.7,issue,2020-07-19_16h20.36.985,ANT,2020.1.3,Win32,60,,,,,,,0,1,22,70,44,1,0.5,,,,,,,,,,,
,,,,,,,ANT_images/none.png,ANT_images/cong_r.png,0.25,i,0.1,0,0.5,issue,2020-07-19_16h20.36.985,ANT,2020.1.3,Win32,60,,,,,,i,1,1,23,71,3,1,1.6,1.159955,,,,,,,,,,
,,,,,,,ANT_images/down.png,ANT_images/incong_l.png,-0.25,e,1.3,0.1,1.8,issue,2020-07-19_16h20.36.985,ANT,2020.1.3,Win32,60,,,,,,,0,1,24,72,46,1,0.4,,,,,,,,,,,
,,,,,,,ANT_images/up.png,ANT_images/incong_r.png,0.25,i,0.9,0.1,1.4,issue,2020-07-19_16h20.36.985,ANT,2020.1.3,Win32,60,,,,,,,0,1,25,73,41,1,0.8,,,,,,,,,,,
,,,,,,,ANT_images/down.png,ANT_images/neu_r.png,-0.25,i,0.6,0.1,1.1,issue,2020-07-19_16h20.36.985,ANT,2020.1.3,Win32,60,,,,,,,0,1,26,74,43,1,1.1,,,,,,,,,,,
,,,,,,,ANT_images/center.png,ANT_images/neu_r.png,-0.25,i,0.7,0.1,1.2,issue,2020-07-19_16h20.36.985,ANT,2020.1.3,Win32,60,,,,,,,0,1,27,75,19,1,1,,,,,,,,,,,
,,,,,,,ANT_images/double.png,ANT_images/cong_r.png,0.25,i,1.3,0.1,1.8,issue,2020-07-19_16h20.36.985,ANT,2020.1.3,Win32,60,,,,,,,0,1,28,76,27,1,0.4,,,,,,,,,,,
,,,,,,,ANT_images/double.png,ANT_images/incong_r.png,-0.25,i,1.6,0.1,2.1,issue,2020-07-19_16h20.36.985,ANT,2020.1.3,Win32,60,,,,,,,0,1,29,77,35,1,0.1,,,,,,,,,,,
,,,,,,,ANT_images/double.png,ANT_images/incong_l.png,-0.25,e,1.5,0.1,2,issue,2020-07-19_16h20.36.985,ANT,2020.1.3,Win32,60,,,,,,,0,1,30,78,34,1,0.2,,,,,,,,,,,
,,,,,,,ANT_images/double.png,ANT_images/incong_l.png,0.25,e,1,0.1,1.5,issue,2020-07-19_16h20.36.985,ANT,2020.1.3,Win32,60,,,,,,,0,1,31,79,28,1,0.7,,,,,,,,,,,
,,,,,,,ANT_images/none.png,ANT_images/neu_l.png,0.25,e,0.1,0,0.5,issue,2020-07-19_16h20.36.985,ANT,2020.1.3,Win32,60,,,,,,e,1,1,32,80,0,1,1.6,1.15754,,,,,,,,,,
,,,,,,,ANT_images/up.png,ANT_images/neu_r.png,0.25,i,0.8,0.1,1.3,issue,2020-07-19_16h20.36.985,ANT,2020.1.3,Win32,60,,,,,,,0,1,33,81,37,1,0.9,,,,,,,,,,,
,,,,,,,ANT_images/up.png,ANT_images/neu_l.png,0.25,e,1.4,0.1,1.9,issue,2020-07-19_16h20.36.985,ANT,2020.1.3,Win32,60,,,,,,,0,1,34,82,36,1,0.3,,,,,,,,,,,
,,,,,,,ANT_images/none.png,ANT_images/incong_l.png,-0.25,e,0.1,0,0.5,issue,2020-07-19_16h20.36.985,ANT,2020.1.3,Win32,60,,,,,,e,1,1,35,83,10,1,1.6,1.382365,,,,,,,,,,
,,,,,,,ANT_images/center.png,ANT_images/cong_r.png,-0.25,i,1.6,0.1,2.1,issue,2020-07-19_16h20.36.985,ANT,2020.1.3,Win32,60,,,,,,,0,1,36,84,21,1,0.1,,,,,,,,,,,
,,,,,,,ANT_images/center.png,ANT_images/incong_r.png,-0.25,i,0.9,0.1,1.4,issue,2020-07-19_16h20.36.985,ANT,2020.1.3,Win32,60,,,,,,,0,1,37,85,23,1,0.8,,,,,,,,,,,
,,,,,,,ANT_images/down.png,ANT_images/cong_r.png,-0.25,i,0.4,0.1,0.9,issue,2020-07-19_16h20.36.985,ANT,2020.1.3,Win32,60,,,,,,i,1,1,38,86,45,1,1.3,1.58177,,,,,,,,,,
,,,,,,,ANT_images/none.png,ANT_images/cong_l.png,0.25,e,0.1,0,0.5,issue,2020-07-19_16h20.36.985,ANT,2020.1.3,Win32,60,,,,,,e,1,1,39,87,2,1,1.6,1.27276,,,,,,,,,,
,,,,,,,ANT_images/down.png,ANT_images/incong_r.png,-0.25,i,1,0.1,1.5,issue,2020-07-19_16h20.36.985,ANT,2020.1.3,Win32,60,,,,,,,0,1,40,88,47,1,0.7,,,,,,,,,,,
,,,,,,,ANT_images/double.png,ANT_images/neu_l.png,0.25,e,0.6,0.1,1.1,issue,2020-07-19_16h20.36.985,ANT,2020.1.3,Win32,60,,,,,,,0,1,41,89,24,1,1.1,,,,,,,,,,,
,,,,,,,ANT_images/none.png,ANT_images/neu_r.png,-0.25,i,0.1,0,0.5,issue,2020-07-19_16h20.36.985,ANT,2020.1.3,Win32,60,,,,,,i,1,1,42,90,7,1,1.6,1.119365,,,,,,,,,,
,,,,,,,ANT_images/none.png,ANT_images/cong_r.png,-0.25,i,0.1,0,0.5,issue,2020-07-19_16h20.36.985,ANT,2020.1.3,Win32,60,,,,,,i,1,1,43,91,9,1,1.6,1.280085,,,,,,,,,,
,,,,,,,ANT_images/center.png,ANT_images/cong_r.png,0.25,i,1.4,0.1,1.9,issue,2020-07-19_16h20.36.985,ANT,2020.1.3,Win32,60,,,,,,,0,1,44,92,15,1,0.3,,,,,,,,,,,
,,,,,,,ANT_images/up.png,ANT_images/cong_l.png,0.25,e,1.5,0.1,2,issue,2020-07-19_16h20.36.985,ANT,2020.1.3,Win32,60,,,,,,,0,1,45,93,38,1,0.2,,,,,,,,,,,
,,,,,,,ANT_images/double.png,ANT_images/incong_r.png,0.25,i,0.9,0.1,1.4,issue,2020-07-19_16h20.36.985,ANT,2020.1.3,Win32,60,,,,,,,0,1,46,94,29,1,0.8,,,,,,,,,,,
,,,,,,,ANT_images/center.png,ANT_images/neu_l.png,-0.25,e,0.8,0.1,1.3,issue,2020-07-19_16h20.36.985,ANT,2020.1.3,Win32,60,,,,,,,0,1,47,95,18,1,0.9,,,,,,,,,,,
,,,,,,,ANT_images/double.png,ANT_images/cong_r.png,0.25,i,1.3,0.1,1.8,issue,2020-07-19_16h20.36.985,ANT,2020.1.3,Win32,60,,,,,,,0,,,,,,0.4,,,,,,,0,0,0,27,1
,,,,,,,ANT_images/center.png,ANT_images/cong_r.png,0.25,i,1.4,0.1,1.9,issue,2020-07-19_16h20.36.985,ANT,2020.1.3,Win32,60,,,,,,,0,,,,,,0.3,,,,,,,0,1,1,15,1
,,,,,,,ANT_images/center.png,ANT_images/incong_r.png,-0.25,i,0.9,0.1,1.4,issue,2020-07-19_16h20.36.985,ANT,2020.1.3,Win32,60,,,,,,,0,,,,,,0.8,,,,,,,0,2,2,23,1
,,,,,,,ANT_images/center.png,ANT_images/cong_l.png,-0.25,e,1.5,0.1,2,issue,2020-07-19_16h20.36.985,ANT,2020.1.3,Win32,60,,,,,,,0,,,,,,0.2,,,,,,,0,3,3,20,1
,,,,,,,ANT_images/down.png,ANT_images/neu_r.png,-0.25,i,0.6,0.1,1.1,issue,2020-07-19_16h20.36.985,ANT,2020.1.3,Win32,60,,,,,,,0,,,,,,1.1,,,,,,,0,4,4,43,1
,,,,,,,ANT_images/none.png,ANT_images/neu_l.png,0.25,e,0.1,0,0.5,issue,2020-07-19_16h20.36.985,ANT,2020.1.3,Win32,60,,,,,,e,1,,,,,,1.6,1.212775,,,,,,0,5,5,0,1
,,,,,,,ANT_images/up.png,ANT_images/incong_l.png,0.25,e,0.5,0.1,1,issue,2020-07-19_16h20.36.985,ANT,2020.1.3,Win32,60,,,,,,e,1,,,,,,1.2,1.631425,,,,,,0,6,6,40,1
,,,,,,,ANT_images/center.png,ANT_images/neu_r.png,-0.25,i,0.7,0.1,1.2,issue,2020-07-19_16h20.36.985,ANT,2020.1.3,Win32,60,,,,,,,0,,,,,,1,,,,,,,0,7,7,19,1
,,,,,,,ANT_images/down.png,ANT_images/incong_r.png,-0.25,i,1,0.1,1.5,issue,2020-07-19_16h20.36.985,ANT,2020.1.3,Win32,60,,,,,,,0,,,,,,0.7,,,,,,,0,8,8,47,1
,,,,,,,ANT_images/double.png,ANT_images/neu_l.png,0.25,e,0.6,0.1,1.1,issue,2020-07-19_16h20.36.985,ANT,2020.1.3,Win32,60,,,,,,e,1,,,,,,1.1,1.628905,,,,,,0,9,9,24,1
,,,,,,,ANT_images/none.png,ANT_images/cong_l.png,-0.25,e,0.1,0,0.5,issue,2020-07-19_16h20.36.985,ANT,2020.1.3,Win32,60,,,,,,e,1,,,,,,1.6,1.24879,,,,,,0,10,10,8,1
,,,,,,,ANT_images/none.png,ANT_images/cong_l.png,0.25,e,0.1,0,0.5,issue,2020-07-19_16h20.36.985,ANT,2020.1.3,Win32,60,,,,,,e,1,,,,,,1.6,1.09204,,,,,,0,11,11,2,1
,,,,,,,ANT_images/center.png,ANT_images/incong_l.png,0.25,e,0.5,0.1,1,issue,2020-07-19_16h20.36.985,ANT,2020.1.3,Win32,60,,,,,,,0,,,,,,1.2,,,,,,,0,12,12,16,1
,,,,,,,ANT_images/none.png,ANT_images/incong_l.png,-0.25,e,0.1,0,0.5,issue,2020-07-19_16h20.36.985,ANT,2020.1.3,Win32,60,,,,,,e,1,,,,,,1.6,1.450285,,,,,,0,13,13,10,1
,,,,,,,ANT_images/center.png,ANT_images/neu_l.png,-0.25,e,0.8,0.1,1.3,issue,2020-07-19_16h20.36.985,ANT,2020.1.3,Win32,60,,,,,,,0,,,,,,0.9,,,,,,,0,14,14,18,1
,,,,,,,ANT_images/center.png,ANT_images/cong_l.png,0.25,e,1.2,0.1,1.7,issue,2020-07-19_16h20.36.985,ANT,2020.1.3,Win32,60,,,,,,,0,,,,,,0.5,,,,,,,0,15,15,14,1
,,,,,,,ANT_images/down.png,ANT_images/neu_l.png,-0.25,e,0.8,0.1,1.3,issue,2020-07-19_16h20.36.985,ANT,2020.1.3,Win32,60,,,,,,,0,,,,,,0.9,,,,,,,0,16,16,42,1
,,,,,,,ANT_images/down.png,ANT_images/cong_r.png,-0.25,i,0.4,0.1,0.9,issue,2020-07-19_16h20.36.985,ANT,2020.1.3,Win32,60,,,,,,i,1,,,,,,1.3,1.49249,,,,,,0,17,17,45,1
,,,,,,,ANT_images/double.png,ANT_images/incong_l.png,-0.25,e,1.5,0.1,2,issue,2020-07-19_16h20.36.985,ANT,2020.1.3,Win32,60,,,,,,,0,,,,,,0.2,,,,,,,0,18,18,34,1
,,,,,,,ANT_images/double.png,ANT_images/incong_l.png,0.25,e,1,0.1,1.5,issue,2020-07-19_16h20.36.985,ANT,2020.1.3,Win32,60,,,,,,,0,,,,,,0.7,,,,,,,0,19,19,28,1
,,,,,,,ANT_images/none.png,ANT_images/incong_l.png,0.25,e,0.1,0,0.5,issue,2020-07-19_16h20.36.985,ANT,2020.1.3,Win32,60,,,,,,e,1,,,,,,1.6,1.203415,,,,,,0,20,20,4,1
,,,,,,,ANT_images/double.png,ANT_images/neu_r.png,0.25,i,1.2,0.1,1.7,issue,2020-07-19_16h20.36.985,ANT,2020.1.3,Win32,60,,,,,,,0,,,,,,0.5,,,,,,,0,21,21,25,1
,,,,,,,ANT_images/double.png,ANT_images/neu_r.png,-0.25,i,0.7,0.1,1.2,issue,2020-07-19_16h20.36.985,ANT,2020.1.3,Win32,60,,,,,,,0,,,,,,1,,,,,,,0,22,22,31,1
,,,,,,,ANT_images/none.png,ANT_images/cong_r.png,0.25,i,0.1,0,0.5,issue,2020-07-19_16h20.36.985,ANT,2020.1.3,Win32,60,,,,,,i,1,,,,,,1.6,1.077575,,,,,,0,23,23,3,1
,,,,,,,ANT_images/up.png,ANT_images/cong_l.png,0.25,e,1.5,0.1,2,issue,2020-07-19_16h20.36.985,ANT,2020.1.3,Win32,60,,,,,,,0,,,,,,0.2,,,,,,,0,24,24,38,1
,,,,,,,ANT_images/center.png,ANT_images/neu_l.png,0.25,e,1.1,0.1,1.6,issue,2020-07-19_16h20.36.985,ANT,2020.1.3,Win32,60,,,,,,,0,,,,,,0.6,,,,,,,0,25,25,12,1
,,,,,,,ANT_images/double.png,ANT_images/incong_r.png,-0.25,i,1.6,0.1,2.1,issue,2020-07-19_16h20.36.985,ANT,2020.1.3,Win32,60,,,,,,,0,,,,,,0.1,,,,,,,0,26,26,35,1
,,,,,,,ANT_images/double.png,ANT_images/neu_l.png,-0.25,e,0.5,0.1,1,issue,2020-07-19_16h20.36.985,ANT,2020.1.3,Win32,60,,,,,,,0,,,,,,1.2,,,,,,,0,27,27,30,1
,,,,,,,ANT_images/down.png,ANT_images/incong_l.png,-0.25,e,1.3,0.1,1.8,issue,2020-07-19_16h20.36.985,ANT,2020.1.3,Win32,60,,,,,,,0,,,,,,0.4,,,,,,,0,28,28,46,1
,,,,,,,ANT_images/double.png,ANT_images/cong_l.png,0.25,e,0.6,0.1,1.1,issue,2020-07-19_16h20.36.985,ANT,2020.1.3,Win32,60,,,,,,,0,,,,,,1.1,,,,,,,0,29,29,26,1
,,,,,,,ANT_images/up.png,ANT_images/cong_r.png,0.25,i,1.4,0.1,1.9,issue,2020-07-19_16h20.36.985,ANT,2020.1.3,Win32,60,,,,,,,0,,,,,,0.3,,,,,,,0,30,30,39,1
,,,,,,,ANT_images/center.png,ANT_images/incong_l.png,-0.25,e,1.3,0.1,1.8,issue,2020-07-19_16h20.36.985,ANT,2020.1.3,Win32,60,,,,,,,0,,,,,,0.4,,,,,,,0,31,31,22,1
,,,,,,,ANT_images/double.png,ANT_images/cong_l.png,-0.25,e,0.4,0.1,0.9,issue,2020-07-19_16h20.36.985,ANT,2020.1.3,Win32,60,,,,,,e,1,,,,,,1.3,1.49408,,,,,,0,32,32,32,1
,,,,,,,ANT_images/none.png,ANT_images/neu_l.png,-0.25,e,0.1,0,0.5,issue,2020-07-19_16h20.36.985,ANT,2020.1.3,Win32,60,,,,,,e,1,,,,,,1.6,1.11606,,,,,,0,33,33,6,1
,,,,,,,ANT_images/none.png,ANT_images/cong_r.png,-0.25,i,0.1,0,0.5,issue,2020-07-19_16h20.36.985,ANT,2020.1.3,Win32,60,,,,,,i,1,,,,,,1.6,1.164435,,,,,,0,34,34,9,1
,,,,,,,ANT_images/double.png,ANT_images/incong_r.png,0.25,i,0.9,0.1,1.4,issue,2020-07-19_16h20.36.985,ANT,2020.1.3,Win32,60,,,,,,,0,,,,,,0.8,,,,,,,0,35,35,29,1
,,,,,,,ANT_images/double.png,ANT_images/cong_r.png,-0.25,i,1.1,0.1,1.6,issue,2020-07-19_16h20.36.985,ANT,2020.1.3,Win32,60,,,,,,,0,,,,,,0.6,,,,,,,0,36,36,33,1
,,,,,,,ANT_images/up.png,ANT_images/neu_r.png,0.25,i,0.8,0.1,1.3,issue,2020-07-19_16h20.36.985,ANT,2020.1.3,Win32,60,,,,,,,0,,,,,,0.9,,,,,,,0,37,37,37,1
,,,,,,,ANT_images/center.png,ANT_images/cong_r.png,-0.25,i,1.6,0.1,2.1,issue,2020-07-19_16h20.36.985,ANT,2020.1.3,Win32,60,,,,,,,0,,,,,,0.1,,,,,,,0,38,38,21,1
,,,,,,,ANT_images/none.png,ANT_images/incong_r.png,-0.25,i,0.1,0,0.5,issue,2020-07-19_16h20.36.985,ANT,2020.1.3,Win32,60,,,,,,i,1,,,,,,1.6,1.39873,,,,,,0,39,39,11,1
,,,,,,,ANT_images/center.png,ANT_images/incong_r.png,0.25,i,0.4,0.1,0.9,issue,2020-07-19_16h20.36.985,ANT,2020.1.3,Win32,60,,,,,,i,1,,,,,,1.3,1.640445,,,,,,0,40,40,17,1
,,,,,,,ANT_images/none.png,ANT_images/neu_r.png,0.25,i,0.1,0,0.5,issue,2020-07-19_16h20.36.985,ANT,2020.1.3,Win32,60,,,,,,i,1,,,,,,1.6,1.0272,,,,,,0,41,41,1,1
,,,,,,,ANT_images/none.png,ANT_images/neu_r.png,-0.25,i,0.1,0,0.5,issue,2020-07-19_16h20.36.985,ANT,2020.1.3,Win32,60,,,,,,i,1,,,,,,1.6,1.268955,,,,,,0,42,42,7,1
,,,,,,,ANT_images/down.png,ANT_images/cong_l.png,-0.25,e,1.2,0.1,1.7,issue,2020-07-19_16h20.36.985,ANT,2020.1.3,Win32,60,,,,,,,0,,,,,,0.5,,,,,,,0,43,43,44,1
,,,,,,,ANT_images/up.png,ANT_images/neu_l.png,0.25,e,1.4,0.1,1.9,issue,2020-07-19_16h20.36.985,ANT,2020.1.3,Win32,60,,,,,,,0,,,,,,0.3,,,,,,,0,44,44,36,1
,,,,,,,ANT_images/center.png,ANT_images/neu_r.png,0.25,i,1,0.1,1.5,issue,2020-07-19_16h20.36.985,ANT,2020.1.3,Win32,60,,,,,,,0,,,,,,0.7,,,,,,,0,45,45,13,1
,,,,,,,ANT_images/up.png,ANT_images/incong_r.png,0.25,i,0.9,0.1,1.4,issue,2020-07-19_16h20.36.985,ANT,2020.1.3,Win32,60,,,,,,,0,,,,,,0.8,,,,,,,0,46,46,41,1
,,,,,,,ANT_images/none.png,ANT_images/incong_r.png,0.25,i,0.1,0,0.5,issue,2020-07-19_16h20.36.985,ANT,2020.1.3,Win32,60,,,,,,i,1,,,,,,1.6,1.08598,,,,,,0,47,47,5,1
,,,,,,,ANT_images/center.png,ANT_images/incong_l.png,0.25,e,0.5,0.1,1,issue,2020-07-19_16h20.36.985,ANT,2020.1.3,Win32,60,,,,,,e,1,,,,,,1.2,1.47384,,,,,,1,0,48,16,1
,,,,,,,ANT_images/none.png,ANT_images/cong_l.png,0.25,e,0.1,0,0.5,issue,2020-07-19_16h20.36.985,ANT,2020.1.3,Win32,60,,,,,,e,1,,,,,,1.6,1.22598,,,,,,1,1,49,2,1
,,,,,,,ANT_images/none.png,ANT_images/incong_r.png,0.25,i,0.1,0,0.5,issue,2020-07-19_16h20.36.985,ANT,2020.1.3,Win32,60,,,,,,i,1,,,,,,1.6,1.116365,,,,,,1,2,50,5,1
,,,,,,,ANT_images/center.png,ANT_images/neu_r.png,0.25,i,1,0.1,1.5,issue,2020-07-19_16h20.36.985,ANT,2020.1.3,Win32,60,,,,,,,0,,,,,,0.7,,,,,,,1,3,51,13,1
,,,,,,,ANT_images/center.png,ANT_images/cong_r.png,-0.25,i,1.6,0.1,2.1,issue,2020-07-19_16h20.36.985,ANT,2020.1.3,Win32,60,,,,,,,0,,,,,,0.1,,,,,,,1,4,52,21,1
,,,,,,,ANT_images/none.png,ANT_images/incong_l.png,0.25,e,0.1,0,0.5,issue,2020-07-19_16h20.36.985,ANT,2020.1.3,Win32,60,,,,,,e,1,,,,,,1.6,1.30654,,,,,,1,5,53,4,1
,,,,,,,ANT_images/double.png,ANT_images/cong_r.png,-0.25,i,1.1,0.1,1.6,issue,2020-07-19_16h20.36.985,ANT,2020.1.3,Win32,60,,,,,,,0,,,,,,0.6,,,,,,,1,6,54,33,1
,,,,,,,ANT_images/double.png,ANT_images/cong_l.png,0.25,e,0.6,0.1,1.1,issue,2020-07-19_16h20.36.985,ANT,2020.1.3,Win32,60,,,,,,,0,,,,,,1.1,,,,,,,1,7,55,26,1
,,,,,,,ANT_images/double.png,ANT_images/neu_l.png,-0.25,e,0.5,0.1,1,issue,2020-07-19_16h20.36.985,ANT,2020.1.3,Win32,60,,,,,,,0,,,,,,1.2,,,,,,,1,8,56,30,1
,,,,,,,ANT_images/center.png,ANT_images/cong_l.png,0.25,e,1.2,0.1,1.7,issue,2020-07-19_16h20.36.985,ANT,2020.1.3,Win32,60,,,,,,,0,,,,,,0.5,,,,,,,1,9,57,14,1
,,,,,,,ANT_images/up.png,ANT_images/cong_r.png,0.25,i,1.4,0.1,1.9,issue,2020-07-19_16h20.36.985,ANT,2020.1.3,Win32,60,,,,,,,0,,,,,,0.3,,,,,,,1,10,58,39,1
,,,,,,,ANT_images/center.png,ANT_images/cong_r.png,0.25,i,1.4,0.1,1.9,issue,2020-07-19_16h20.36.985,ANT,2020.1.3,Win32,60,,,,,,,0,,,,,,0.3,,,,,,,1,11,59,15,1
,,,,,,,ANT_images/none.png,ANT_images/neu_l.png,0.25,e,0.1,0,0.5,issue,2020-07-19_16h20.36.985,ANT,2020.1.3,Win32,60,,,,,,e,1,,,,,,1.6,1.116495,,,,,,1,12,60,0,1
,,,,,,,ANT_images/up.png,ANT_images/cong_l.png,0.25,e,1.5,0.1,2,issue,2020-07-19_16h20.36.985,ANT,2020.1.3,Win32,60,,,,,,,0,,,,,,0.2,,,,,,,1,13,61,38,1
,,,,,,,ANT_images/double.png,ANT_images/incong_l.png,-0.25,e,1.5,0.1,2,issue,2020-07-19_16h20.36.985,ANT,2020.1.3,Win32,60,,,,,,,0,,,,,,0.2,,,,,,,1,14,62,34,1
,,,,,,,ANT_images/none.png,ANT_images/cong_r.png,0.25,i,0.1,0,0.5,issue,2020-07-19_16h20.36.985,ANT,2020.1.3,Win32,60,,,,,,i,1,,,,,,1.6,1.159795,,,,,,1,15,63,3,1
,,,,,,,ANT_images/double.png,ANT_images/neu_r.png,-0.25,i,0.7,0.1,1.2,issue,2020-07-19_16h20.36.985,ANT,2020.1.3,Win32,60,,,,,,,0,,,,,,1,,,,,,,1,16,64,31,1
,,,,,,,ANT_images/none.png,ANT_images/cong_r.png,-0.25,i,0.1,0,0.5,issue,2020-07-19_16h20.36.985,ANT,2020.1.3,Win32,60,,,,,,,0,,,,,,1.6,,,,,,,1,17,65,9,1
,,,,,,,ANT_images/double.png,ANT_images/cong_r.png,0.25,i,1.3,0.1,1.8,issue,2020-07-19_16h20.36.985,ANT,2020.1.3,Win32,60,,,,,,,0,,,,,,0.4,,,,,,,1,18,66,27,1
,,,,,,,ANT_images/double.png,ANT_images/neu_r.png,0.25,i,1.2,0.1,1.7,issue,2020-07-19_16h20.36.985,ANT,2020.1.3,Win32,60,,,,,,,0,,,,,,0.5,,,,,,,1,19,67,25,1
,,,,,,,ANT_images/up.png,ANT_images/neu_l.png,0.25,e,1.4,0.1,1.9,issue,2020-07-19_16h20.36.985,ANT,2020.1.3,Win32,60,,,,,,,0,,,,,,0.3,,,,,,,1,20,68,36,1
,,,,,,,ANT_images/double.png,ANT_images/incong_r.png,-0.25,i,1.6,0.1,2.1,issue,2020-07-19_16h20.36.985,ANT,2020.1.3,Win32,60,,,,,,,0,,,,,,0.1,,,,,,,1,21,69,35,1
,,,,,,,ANT_images/down.png,ANT_images/neu_r.png,-0.25,i,0.6,0.1,1.1,issue,2020-07-19_16h20.36.985,ANT,2020.1.3,Win32,60,,,,,,,0,,,,,,1.1,,,,,,,1,22,70,43,1
,,,,,,,ANT_images/center.png,ANT_images/cong_l.png,-0.25,e,1.5,0.1,2,issue,2020-07-19_16h20.36.985,ANT,2020.1.3,Win32,60,,,,,,,0,,,,,,0.2,,,,,,,1,23,71,20,1
,,,,,,,ANT_images/up.png,ANT_images/incong_l.png,0.25,e,0.5,0.1,1,issue,2020-07-19_16h20.36.985,ANT,2020.1.3,Win32,60,,,,,,,0,,,,,,1.2,,,,,,,1,24,72,40,1
,,,,,,,ANT_images/down.png,ANT_images/incong_r.png,-0.25,i,1,0.1,1.5,issue,2020-07-19_16h20.36.985,ANT,2020.1.3,Win32,60,,,,,,,0,,,,,,0.7,,,,,,,1,25,73,47,1
,,,,,,,ANT_images/none.png,ANT_images/neu_l.png,-0.25,e,0.1,0,0.5,issue,2020-07-19_16h20.36.985,ANT,2020.1.3,Win32,60,,,,,,e,1,,,,,,1.6,1.26224,,,,,,1,26,74,6,1
,,,,,,,ANT_images/center.png,ANT_images/incong_r.png,0.25,i,0.4,0.1,0.9,issue,2020-07-19_16h20.36.985,ANT,2020.1.3,Win32,60,,,,,,i,1,,,,,,1.3,1.59912,,,,,,1,27,75,17,1
,,,,,,,ANT_images/down.png,ANT_images/incong_l.png,-0.25,e,1.3,0.1,1.8,issue,2020-07-19_16h20.36.985,ANT,2020.1.3,Win32,60,,,,,,,0,,,,,,0.4,,,,,,,1,28,76,46,1
,,,,,,,ANT_images/none.png,ANT_images/cong_l.png,-0.25,e,0.1,0,0.5,issue,2020-07-19_16h20.36.985,ANT,2020.1.3,Win32,60,,,,,,e,1,,,,,,1.6,1.285165,,,,,,1,29,77,8,1
,,,,,,,ANT_images/up.png,ANT_images/neu_r.png,0.25,i,0.8,0.1,1.3,issue,2020-07-19_16h20.36.985,ANT,2020.1.3,Win32,60,,,,,,,0,,,,,,0.9,,,,,,,1,30,78,37,1
,,,,,,,ANT_images/down.png,ANT_images/cong_l.png,-0.25,e,1.2,0.1,1.7,issue,2020-07-19_16h20.36.985,ANT,2020.1.3,Win32,60,,,,,,,0,,,,,,0.5,,,,,,,1,31,79,44,1
,,,,,,,ANT_images/double.png,ANT_images/neu_l.png,0.25,e,0.6,0.1,1.1,issue,2020-07-19_16h20.36.985,ANT,2020.1.3,Win32,60,,,,,,,0,,,,,,1.1,,,,,,,1,32,80,24,1
,,,,,,,ANT_images/center.png,ANT_images/incong_r.png,-0.25,i,0.9,0.1,1.4,issue,2020-07-19_16h20.36.985,ANT,2020.1.3,Win32,60,,,,,,,0,,,,,,0.8,,,,,,,1,33,81,23,1
,,,,,,,ANT_images/none.png,ANT_images/neu_r.png,0.25,i,0.1,0,0.5,issue,2020-07-19_16h20.36.985,ANT,2020.1.3,Win32,60,,,,,,i,1,,,,,,1.6,1.129095,,,,,,1,34,82,1,1
,,,,,,,ANT_images/none.png,ANT_images/neu_r.png,-0.25,i,0.1,0,0.5,issue,2020-07-19_16h20.36.985,ANT,2020.1.3,Win32,60,,,,,,i,1,,,,,,1.6,1.30035,,,,,,1,35,83,7,1
,,,,,,,ANT_images/down.png,ANT_images/neu_l.png,-0.25,e,0.8,0.1,1.3,issue,2020-07-19_16h20.36.985,ANT,2020.1.3,Win32,60,,,,,,,0,,,,,,0.9,,,,,,,1,36,84,42,1
,,,,,,,ANT_images/none.png,ANT_images/incong_r.png,-0.25,i,0.1,0,0.5,issue,2020-07-19_16h20.36.985,ANT,2020.1.3,Win32,60,,,,,,i,1,,,,,,1.6,1.19274,,,,,,1,37,85,11,1
,,,,,,,ANT_images/none.png,ANT_images/incong_l.png,-0.25,e,0.1,0,0.5,issue,2020-07-19_16h20.36.985,ANT,2020.1.3,Win32,60,,,,,,e,1,,,,,,1.6,1.275855,,,,,,1,38,86,10,1
,,,,,,,ANT_images/double.png,ANT_images/incong_l.png,0.25,e,1,0.1,1.5,issue,2020-07-19_16h20.36.985,ANT,2020.1.3,Win32,60,,,,,,,0,,,,,,0.7,,,,,,,1,39,87,28,1
,,,,,,,ANT_images/down.png,ANT_images/cong_r.png,-0.25,i,0.4,0.1,0.9,issue,2020-07-19_16h20.36.985,ANT,2020.1.3,Win32,60,,,,,,i,1,,,,,,1.3,1.53372,,,,,,1,40,88,45,1
,,,,,,,ANT_images/double.png,ANT_images/incong_r.png,0.25,i,0.9,0.1,1.4,issue,2020-07-19_16h20.36.985,ANT,2020.1.3,Win32,60,,,,,,,0,,,,,,0.8,,,,,,,1,41,89,29,1
,,,,,,,ANT_images/center.png,ANT_images/neu_l.png,0.25,e,1.1,0.1,1.6,issue,2020-07-19_16h20.36.985,ANT,2020.1.3,Win32,60,,,,,,,0,,,,,,0.6,,,,,,,1,42,90,12,1
,,,,,,,ANT_images/center.png,ANT_images/neu_r.png,-0.25,i,0.7,0.1,1.2,issue,2020-07-19_16h20.36.985,ANT,2020.1.3,Win32,60,,,,,,,0,,,,,,1,,,,,,,1,43,91,19,1
,,,,,,,ANT_images/center.png,ANT_images/neu_l.png,-0.25,e,0.8,0.1,1.3,issue,2020-07-19_16h20.36.985,ANT,2020.1.3,Win32,60,,,,,,,0,,,,,,0.9,,,,,,,1,44,92,18,1
,,,,,,,ANT_images/center.png,ANT_images/incong_l.png,-0.25,e,1.3,0.1,1.8,issue,2020-07-19_16h20.36.985,ANT,2020.1.3,Win32,60,,,,,,,0,,,,,,0.4,,,,,,,1,45,93,22,1
,,,,,,,ANT_images/double.png,ANT_images/cong_l.png,-0.25,e,0.4,0.1,0.9,issue,2020-07-19_16h20.36.985,ANT,2020.1.3,Win32,60,,,,,,e,1,,,,,,1.3,1.55056,,,,,,1,46,94,32,1
,,,,,,,ANT_images/up.png,ANT_images/incong_r.png,0.25,i,0.9,0.1,1.4,issue,2020-07-19_16h20.36.985,ANT,2020.1.3,Win32,60,,,,,,,0,,,,,,0.8,,,,,,,1,47,95,41,1
