pract_resp.keys,pract_resp.corr,pract_resp.rt,practice.thisRepN,practice.thisTrialN,practice.thisN,practice.thisIndex,practice.ran,cue_file,flanker,pos,correct,fix1,cue_time,stimStart,participant,date,expName,psychopyVersion,OS,frameRate,key_resp_6.keys,key_resp_6.rt,key_resp_7.keys,key_resp_7.rt,response.keys,response.corr,trials.thisRepN,trials.thisTrialN,trials.thisN,trials.thisIndex,trials.ran,postFix,response.rt,trials_2.thisRepN,trials_2.thisTrialN,trials_2.thisN,trials_2.thisIndex,trials_2.ran,trials_3.thisRepN,trials_3.thisTrialN,trials_3.thisN,trials_3.thisIndex,trials_3.ran
e,1,1.59032,0,0,0,15,1,ANT_images/up.png,ANT_images/cong_l.png,0.25,e,1.5,0.1,2,Kay Sullivan,2020-08-24_16h06.58.658,ANT,2020.1.3,Win32,60,,,,,,,,,,,,,,,,,,,,,,,
i,1,1.011275,0,1,1,8,1,ANT_images/center.png,ANT_images/cong_r.png,0.25,i,1.4,0.1,1.9,Kay Sullivan,2020-08-24_16h06.58.658,ANT,2020.1.3,Win32,60,,,,,,,,,,,,,,,,,,,,,,,
i,1,1.152265,0,2,2,10,1,ANT_images/double.png,ANT_images/neu_r.png,-0.25,i,0.7,0.1,1.2,Kay Sullivan,2020-08-24_16h06.58.658,ANT,2020.1.3,Win32,60,,,,,,,,,,,,,,,,,,,,,,,
i,1,0.993315,0,3,3,11,1,ANT_images/double.png,ANT_images/incong_r.png,-0.25,i,1.6,0.1,2.1,Kay Sullivan,2020-08-24_16h06.58.658,ANT,2020.1.3,Win32,60,,,,,,,,,,,,,,,,,,,,,,,
e,1,0.740045,0,4,4,16,1,ANT_images/up.png,ANT_images/neu_l.png,0.25,e,1.4,0.1,1.9,Kay Sullivan,2020-08-24_16h06.58.658,ANT,2020.1.3,Win32,60,,,,,,,,,,,,,,,,,,,,,,,
e,1,1.43778,0,5,5,19,1,ANT_images/down.png,ANT_images/incong_l.png,-0.25,e,1.3,0.1,1.8,Kay Sullivan,2020-08-24_16h06.58.658,ANT,2020.1.3,Win32,60,,,,,,,,,,,,,,,,,,,,,,,
e,1,1.05786,0,6,6,0,1,ANT_images/none.png,ANT_images/cong_l.png,-0.25,e,0.1,0,0.5,Kay Sullivan,2020-08-24_16h06.58.658,ANT,2020.1.3,Win32,60,,,,,,,,,,,,,,,,,,,,,,,
i,1,1.030185,0,7,7,4,1,ANT_images/none.png,ANT_images/cong_r.png,0.25,i,0.1,0,0.5,Kay Sullivan,2020-08-24_16h06.58.658,ANT,2020.1.3,Win32,60,,,,,,,,,,,,,,,,,,,,,,,
i,1,0.76814,0,8,8,23,1,ANT_images/center.png,ANT_images/incong_r.png,0.25,i,0.4,0.1,0.9,Kay Sullivan,2020-08-24_16h06.58.658,ANT,2020.1.3,Win32,60,,,,,,,,,,,,,,,,,,,,,,,
i,1,0.57864,0,9,9,9,1,ANT_images/center.png,ANT_images/neu_r.png,0.25,i,1,0.1,1.5,Kay Sullivan,2020-08-24_16h06.58.658,ANT,2020.1.3,Win32,60,,,,,,,,,,,,,,,,,,,,,,,
i,1,0.88223,0,10,10,17,1,ANT_images/up.png,ANT_images/incong_r.png,0.25,i,0.9,0.1,1.4,Kay Sullivan,2020-08-24_16h06.58.658,ANT,2020.1.3,Win32,60,,,,,,,,,,,,,,,,,,,,,,,
i,1,0.646675,0,11,11,13,1,ANT_images/double.png,ANT_images/cong_r.png,0.25,i,1.3,0.1,1.8,Kay Sullivan,2020-08-24_16h06.58.658,ANT,2020.1.3,Win32,60,,,,,,,,,,,,,,,,,,,,,,,
i,1,0.93779,0,12,12,20,1,ANT_images/down.png,ANT_images/incong_r.png,-0.25,i,1,0.1,1.5,Kay Sullivan,2020-08-24_16h06.58.658,ANT,2020.1.3,Win32,60,,,,,,,,,,,,,,,,,,,,,,,
e,1,0.82681,0,13,13,5,1,ANT_images/center.png,ANT_images/neu_l.png,-0.25,e,0.8,0.1,1.3,Kay Sullivan,2020-08-24_16h06.58.658,ANT,2020.1.3,Win32,60,,,,,,,,,,,,,,,,,,,,,,,
e,1,1.368185,0,14,14,22,1,ANT_images/center.png,ANT_images/incong_l.png,-0.25,e,1.3,0.1,1.8,Kay Sullivan,2020-08-24_16h06.58.658,ANT,2020.1.3,Win32,60,,,,,,,,,,,,,,,,,,,,,,,
e,1,0.86874,0,15,15,2,1,ANT_images/none.png,ANT_images/cong_l.png,0.25,e,0.1,0,0.5,Kay Sullivan,2020-08-24_16h06.58.658,ANT,2020.1.3,Win32,60,,,,,,,,,,,,,,,,,,,,,,,
e,1,0.651325,0,16,16,7,1,ANT_images/center.png,ANT_images/neu_l.png,0.25,e,1.1,0.1,1.6,Kay Sullivan,2020-08-24_16h06.58.658,ANT,2020.1.3,Win32,60,,,,,,,,,,,,,,,,,,,,,,,
e,1,1.061255,0,17,17,12,1,ANT_images/double.png,ANT_images/incong_l.png,-0.25,e,1.5,0.1,2,Kay Sullivan,2020-08-24_16h06.58.658,ANT,2020.1.3,Win32,60,,,,,,,,,,,,,,,,,,,,,,,
i,1,0.764665,0,18,18,3,1,ANT_images/none.png,ANT_images/cong_r.png,-0.25,i,0.1,0,0.5,Kay Sullivan,2020-08-24_16h06.58.658,ANT,2020.1.3,Win32,60,,,,,,,,,,,,,,,,,,,,,,,
i,1,0.7792,0,19,19,21,1,ANT_images/none.png,ANT_images/neu_r.png,0.25,i,0.1,0,0.5,Kay Sullivan,2020-08-24_16h06.58.658,ANT,2020.1.3,Win32,60,,,,,,,,,,,,,,,,,,,,,,,
i,1,0.69794,0,20,20,14,1,ANT_images/double.png,ANT_images/neu_r.png,0.25,i,1.2,0.1,1.7,Kay Sullivan,2020-08-24_16h06.58.658,ANT,2020.1.3,Win32,60,,,,,,,,,,,,,,,,,,,,,,,
e,1,0.738075,0,21,21,18,1,ANT_images/down.png,ANT_images/cong_l.png,-0.25,e,1.2,0.1,1.7,Kay Sullivan,2020-08-24_16h06.58.658,ANT,2020.1.3,Win32,60,,,,,,,,,,,,,,,,,,,,,,,
i,1,0.71758,0,22,22,1,1,ANT_images/none.png,ANT_images/incong_r.png,0.25,i,0.1,0,0.5,Kay Sullivan,2020-08-24_16h06.58.658,ANT,2020.1.3,Win32,60,,,,,,,,,,,,,,,,,,,,,,,
i,1,0.52492,0,23,23,6,1,ANT_images/center.png,ANT_images/neu_r.png,0.25,i,1,0.1,1.5,Kay Sullivan,2020-08-24_16h06.58.658,ANT,2020.1.3,Win32,60,,,,,,,,,,,,,,,,,,,,,,,
,,,,,,,,ANT_images/up.png,ANT_images/incong_l.png,0.25,e,0.5,0.1,1,Kay Sullivan,2020-08-24_16h06.58.658,ANT,2020.1.3,Win32,60,space,15.00756,space,4.68411,,0,0,0,0,40,1,1.2,,,,,,,,,,,
,,,,,,,,ANT_images/none.png,ANT_images/cong_l.png,-0.25,e,0.1,0,0.5,Kay Sullivan,2020-08-24_16h06.58.658,ANT,2020.1.3,Win32,60,,,,,e,1,0,1,1,8,1,1.6,1.28309,,,,,,,,,,
,,,,,,,,ANT_images/center.png,ANT_images/cong_l.png,0.25,e,1.2,0.1,1.7,Kay Sullivan,2020-08-24_16h06.58.658,ANT,2020.1.3,Win32,60,,,,,,0,0,2,2,14,1,0.5,,,,,,,,,,,
,,,,,,,,ANT_images/down.png,ANT_images/cong_l.png,-0.25,e,1.2,0.1,1.7,Kay Sullivan,2020-08-24_16h06.58.658,ANT,2020.1.3,Win32,60,,,,,,0,0,3,3,44,1,0.5,,,,,,,,,,,
,,,,,,,,ANT_images/double.png,ANT_images/incong_l.png,0.25,e,1,0.1,1.5,Kay Sullivan,2020-08-24_16h06.58.658,ANT,2020.1.3,Win32,60,,,,,,0,0,4,4,28,1,0.7,,,,,,,,,,,
,,,,,,,,ANT_images/double.png,ANT_images/neu_l.png,-0.25,e,0.5,0.1,1,Kay Sullivan,2020-08-24_16h06.58.658,ANT,2020.1.3,Win32,60,,,,,,0,0,5,5,30,1,1.2,,,,,,,,,,,
,,,,,,,,ANT_images/up.png,ANT_images/incong_r.png,0.25,i,0.9,0.1,1.4,Kay Sullivan,2020-08-24_16h06.58.658,ANT,2020.1.3,Win32,60,,,,,,0,0,6,6,41,1,0.8,,,,,,,,,,,
,,,,,,,,ANT_images/center.png,ANT_images/incong_r.png,0.25,i,0.4,0.1,0.9,Kay Sullivan,2020-08-24_16h06.58.658,ANT,2020.1.3,Win32,60,,,,,i,1,0,7,7,17,1,1.3,1.508865,,,,,,,,,,
,,,,,,,,ANT_images/down.png,ANT_images/neu_r.png,-0.25,i,0.6,0.1,1.1,Kay Sullivan,2020-08-24_16h06.58.658,ANT,2020.1.3,Win32,60,,,,,,0,0,8,8,43,1,1.1,,,,,,,,,,,
,,,,,,,,ANT_images/double.png,ANT_images/incong_l.png,-0.25,e,1.5,0.1,2,Kay Sullivan,2020-08-24_16h06.58.658,ANT,2020.1.3,Win32,60,,,,,,0,0,9,9,34,1,0.2,,,,,,,,,,,
,,,,,,,,ANT_images/center.png,ANT_images/incong_l.png,-0.25,e,1.3,0.1,1.8,Kay Sullivan,2020-08-24_16h06.58.658,ANT,2020.1.3,Win32,60,,,,,,0,0,10,10,22,1,0.4,,,,,,,,,,,
,,,,,,,,ANT_images/none.png,ANT_images/neu_l.png,-0.25,e,0.1,0,0.5,Kay Sullivan,2020-08-24_16h06.58.658,ANT,2020.1.3,Win32,60,,,,,e,1,0,11,11,6,1,1.6,1.28325,,,,,,,,,,
,,,,,,,,ANT_images/center.png,ANT_images/cong_l.png,-0.25,e,1.5,0.1,2,Kay Sullivan,2020-08-24_16h06.58.658,ANT,2020.1.3,Win32,60,,,,,,0,0,12,12,20,1,0.2,,,,,,,,,,,
,,,,,,,,ANT_images/none.png,ANT_images/incong_r.png,-0.25,i,0.1,0,0.5,Kay Sullivan,2020-08-24_16h06.58.658,ANT,2020.1.3,Win32,60,,,,,i,1,0,13,13,11,1,1.6,1.317915,,,,,,,,,,
,,,,,,,,ANT_images/none.png,ANT_images/cong_r.png,0.25,i,0.1,0,0.5,Kay Sullivan,2020-08-24_16h06.58.658,ANT,2020.1.3,Win32,60,,,,,i,1,0,14,14,3,1,1.6,1.083875,,,,,,,,,,
,,,,,,,,ANT_images/double.png,ANT_images/neu_r.png,0.25,i,1.2,0.1,1.7,Kay Sullivan,2020-08-24_16h06.58.658,ANT,2020.1.3,Win32,60,,,,,,0,0,15,15,25,1,0.5,,,,,,,,,,,
,,,,,,,,ANT_images/none.png,ANT_images/neu_r.png,-0.25,i,0.1,0,0.5,Kay Sullivan,2020-08-24_16h06.58.658,ANT,2020.1.3,Win32,60,,,,,i,1,0,16,16,7,1,1.6,1.11486,,,,,,,,,,
,,,,,,,,ANT_images/center.png,ANT_images/cong_r.png,-0.25,i,1.6,0.1,2.1,Kay Sullivan,2020-08-24_16h06.58.658,ANT,2020.1.3,Win32,60,,,,,,0,0,17,17,21,1,0.1,,,,,,,,,,,
,,,,,,,,ANT_images/down.png,ANT_images/incong_l.png,-0.25,e,1.3,0.1,1.8,Kay Sullivan,2020-08-24_16h06.58.658,ANT,2020.1.3,Win32,60,,,,,,0,0,18,18,46,1,0.4,,,,,,,,,,,
,,,,,,,,ANT_images/double.png,ANT_images/cong_l.png,-0.25,e,0.4,0.1,0.9,Kay Sullivan,2020-08-24_16h06.58.658,ANT,2020.1.3,Win32,60,,,,,e,1,0,19,19,32,1,1.3,1.47639,,,,,,,,,,
,,,,,,,,ANT_images/up.png,ANT_images/neu_r.png,0.25,i,0.8,0.1,1.3,Kay Sullivan,2020-08-24_16h06.58.658,ANT,2020.1.3,Win32,60,,,,,,0,0,20,20,37,1,0.9,,,,,,,,,,,
,,,,,,,,ANT_images/center.png,ANT_images/neu_l.png,-0.25,e,0.8,0.1,1.3,Kay Sullivan,2020-08-24_16h06.58.658,ANT,2020.1.3,Win32,60,,,,,,0,0,21,21,18,1,0.9,,,,,,,,,,,
,,,,,,,,ANT_images/double.png,ANT_images/neu_l.png,0.25,e,0.6,0.1,1.1,Kay Sullivan,2020-08-24_16h06.58.658,ANT,2020.1.3,Win32,60,,,,,,0,0,22,22,24,1,1.1,,,,,,,,,,,
,,,,,,,,ANT_images/none.png,ANT_images/incong_l.png,-0.25,e,0.1,0,0.5,Kay Sullivan,2020-08-24_16h06.58.658,ANT,2020.1.3,Win32,60,,,,,e,1,0,23,23,10,1,1.6,1.318095,,,,,,,,,,
,,,,,,,,ANT_images/double.png,ANT_images/neu_r.png,-0.25,i,0.7,0.1,1.2,Kay Sullivan,2020-08-24_16h06.58.658,ANT,2020.1.3,Win32,60,,,,,,0,0,24,24,31,1,1,,,,,,,,,,,
,,,,,,,,ANT_images/up.png,ANT_images/cong_r.png,0.25,i,1.4,0.1,1.9,Kay Sullivan,2020-08-24_16h06.58.658,ANT,2020.1.3,Win32,60,,,,,,0,0,25,25,39,1,0.3,,,,,,,,,,,
,,,,,,,,ANT_images/up.png,ANT_images/cong_l.png,0.25,e,1.5,0.1,2,Kay Sullivan,2020-08-24_16h06.58.658,ANT,2020.1.3,Win32,60,,,,,,0,0,26,26,38,1,0.2,,,,,,,,,,,
,,,,,,,,ANT_images/none.png,ANT_images/neu_r.png,0.25,i,0.1,0,0.5,Kay Sullivan,2020-08-24_16h06.58.658,ANT,2020.1.3,Win32,60,,,,,i,1,0,27,27,1,1,1.6,1.17969,,,,,,,,,,
,,,,,,,,ANT_images/none.png,ANT_images/cong_r.png,-0.25,i,0.1,0,0.5,Kay Sullivan,2020-08-24_16h06.58.658,ANT,2020.1.3,Win32,60,,,,,i,1,0,28,28,9,1,1.6,1.481545,,,,,,,,,,
,,,,,,,,ANT_images/down.png,ANT_images/incong_r.png,-0.25,i,1,0.1,1.5,Kay Sullivan,2020-08-24_16h06.58.658,ANT,2020.1.3,Win32,60,,,,,,0,0,29,29,47,1,0.7,,,,,,,,,,,
,,,,,,,,ANT_images/double.png,ANT_images/incong_r.png,-0.25,i,1.6,0.1,2.1,Kay Sullivan,2020-08-24_16h06.58.658,ANT,2020.1.3,Win32,60,,,,,,0,0,30,30,35,1,0.1,,,,,,,,,,,
,,,,,,,,ANT_images/up.png,ANT_images/neu_l.png,0.25,e,1.4,0.1,1.9,Kay Sullivan,2020-08-24_16h06.58.658,ANT,2020.1.3,Win32,60,,,,,,0,0,31,31,36,1,0.3,,,,,,,,,,,
,,,,,,,,ANT_images/down.png,ANT_images/neu_l.png,-0.25,e,0.8,0.1,1.3,Kay Sullivan,2020-08-24_16h06.58.658,ANT,2020.1.3,Win32,60,,,,,,0,0,32,32,42,1,0.9,,,,,,,,,,,
,,,,,,,,ANT_images/center.png,ANT_images/neu_r.png,-0.25,i,0.7,0.1,1.2,Kay Sullivan,2020-08-24_16h06.58.658,ANT,2020.1.3,Win32,60,,,,,,0,0,33,33,19,1,1,,,,,,,,,,,
,,,,,,,,ANT_images/double.png,ANT_images/cong_l.png,0.25,e,0.6,0.1,1.1,Kay Sullivan,2020-08-24_16h06.58.658,ANT,2020.1.3,Win32,60,,,,,,0,0,34,34,26,1,1.1,,,,,,,,,,,
,,,,,,,,ANT_images/double.png,ANT_images/cong_r.png,0.25,i,1.3,0.1,1.8,Kay Sullivan,2020-08-24_16h06.58.658,ANT,2020.1.3,Win32,60,,,,,,0,0,35,35,27,1,0.4,,,,,,,,,,,
,,,,,,,,ANT_images/none.png,ANT_images/incong_l.png,0.25,e,0.1,0,0.5,Kay Sullivan,2020-08-24_16h06.58.658,ANT,2020.1.3,Win32,60,,,,,e,1,0,36,36,4,1,1.6,1.17596,,,,,,,,,,
,,,,,,,,ANT_images/double.png,ANT_images/incong_r.png,0.25,i,0.9,0.1,1.4,Kay Sullivan,2020-08-24_16h06.58.658,ANT,2020.1.3,Win32,60,,,,,,0,0,37,37,29,1,0.8,,,,,,,,,,,
,,,,,,,,ANT_images/down.png,ANT_images/cong_r.png,-0.25,i,0.4,0.1,0.9,Kay Sullivan,2020-08-24_16h06.58.658,ANT,2020.1.3,Win32,60,,,,,i,1,0,38,38,45,1,1.3,1.483715,,,,,,,,,,
,,,,,,,,ANT_images/center.png,ANT_images/neu_l.png,0.25,e,1.1,0.1,1.6,Kay Sullivan,2020-08-24_16h06.58.658,ANT,2020.1.3,Win32,60,,,,,,0,0,39,39,12,1,0.6,,,,,,,,,,,
,,,,,,,,ANT_images/center.png,ANT_images/cong_r.png,0.25,i,1.4,0.1,1.9,Kay Sullivan,2020-08-24_16h06.58.658,ANT,2020.1.3,Win32,60,,,,,,0,0,40,40,15,1,0.3,,,,,,,,,,,
,,,,,,,,ANT_images/center.png,ANT_images/incong_l.png,0.25,e,0.5,0.1,1,Kay Sullivan,2020-08-24_16h06.58.658,ANT,2020.1.3,Win32,60,,,,,e,1,0,41,41,16,1,1.2,1.558965,,,,,,,,,,
,,,,,,,,ANT_images/center.png,ANT_images/incong_r.png,-0.25,i,0.9,0.1,1.4,Kay Sullivan,2020-08-24_16h06.58.658,ANT,2020.1.3,Win32,60,,,,,,0,0,42,42,23,1,0.8,,,,,,,,,,,
,,,,,,,,ANT_images/none.png,ANT_images/incong_r.png,0.25,i,0.1,0,0.5,Kay Sullivan,2020-08-24_16h06.58.658,ANT,2020.1.3,Win32,60,,,,,i,1,0,43,43,5,1,1.6,1.07385,,,,,,,,,,
,,,,,,,,ANT_images/none.png,ANT_images/neu_l.png,0.25,e,0.1,0,0.5,Kay Sullivan,2020-08-24_16h06.58.658,ANT,2020.1.3,Win32,60,,,,,e,1,0,44,44,0,1,1.6,1.052225,,,,,,,,,,
,,,,,,,,ANT_images/none.png,ANT_images/cong_l.png,0.25,e,0.1,0,0.5,Kay Sullivan,2020-08-24_16h06.58.658,ANT,2020.1.3,Win32,60,,,,,e,1,0,45,45,2,1,1.6,1.073775,,,,,,,,,,
,,,,,,,,ANT_images/center.png,ANT_images/neu_r.png,0.25,i,1,0.1,1.5,Kay Sullivan,2020-08-24_16h06.58.658,ANT,2020.1.3,Win32,60,,,,,,0,0,46,46,13,1,0.7,,,,,,,,,,,
,,,,,,,,ANT_images/double.png,ANT_images/cong_r.png,-0.25,i,1.1,0.1,1.6,Kay Sullivan,2020-08-24_16h06.58.658,ANT,2020.1.3,Win32,60,,,,,,0,0,47,47,33,1,0.6,,,,,,,,,,,
,,,,,,,,ANT_images/down.png,ANT_images/cong_r.png,-0.25,i,0.4,0.1,0.9,Kay Sullivan,2020-08-24_16h06.58.658,ANT,2020.1.3,Win32,60,,,,,i,1,1,0,48,45,1,1.3,1.48219,,,,,,,,,,
,,,,,,,,ANT_images/center.png,ANT_images/incong_l.png,-0.25,e,1.3,0.1,1.8,Kay Sullivan,2020-08-24_16h06.58.658,ANT,2020.1.3,Win32,60,,,,,,0,1,1,49,22,1,0.4,,,,,,,,,,,
,,,,,,,,ANT_images/down.png,ANT_images/incong_l.png,-0.25,e,1.3,0.1,1.8,Kay Sullivan,2020-08-24_16h06.58.658,ANT,2020.1.3,Win32,60,,,,,,0,1,2,50,46,1,0.4,,,,,,,,,,,
,,,,,,,,ANT_images/double.png,ANT_images/neu_l.png,0.25,e,0.6,0.1,1.1,Kay Sullivan,2020-08-24_16h06.58.658,ANT,2020.1.3,Win32,60,,,,,,0,1,3,51,24,1,1.1,,,,,,,,,,,
,,,,,,,,ANT_images/up.png,ANT_images/incong_l.png,0.25,e,0.5,0.1,1,Kay Sullivan,2020-08-24_16h06.58.658,ANT,2020.1.3,Win32,60,,,,,,0,1,4,52,40,1,1.2,,,,,,,,,,,
,,,,,,,,ANT_images/center.png,ANT_images/neu_r.png,0.25,i,1,0.1,1.5,Kay Sullivan,2020-08-24_16h06.58.658,ANT,2020.1.3,Win32,60,,,,,,0,1,5,53,13,1,0.7,,,,,,,,,,,
,,,,,,,,ANT_images/center.png,ANT_images/cong_r.png,0.25,i,1.4,0.1,1.9,Kay Sullivan,2020-08-24_16h06.58.658,ANT,2020.1.3,Win32,60,,,,,,0,1,6,54,15,1,0.3,,,,,,,,,,,
,,,,,,,,ANT_images/center.png,ANT_images/incong_r.png,-0.25,i,0.9,0.1,1.4,Kay Sullivan,2020-08-24_16h06.58.658,ANT,2020.1.3,Win32,60,,,,,,0,1,7,55,23,1,0.8,,,,,,,,,,,
,,,,,,,,ANT_images/none.png,ANT_images/incong_l.png,-0.25,e,0.1,0,0.5,Kay Sullivan,2020-08-24_16h06.58.658,ANT,2020.1.3,Win32,60,,,,,e,1,1,8,56,10,1,1.6,1.35734,,,,,,,,,,
,,,,,,,,ANT_images/none.png,ANT_images/neu_r.png,0.25,i,0.1,0,0.5,Kay Sullivan,2020-08-24_16h06.58.658,ANT,2020.1.3,Win32,60,,,,,i,1,1,9,57,1,1,1.6,1.090555,,,,,,,,,,
,,,,,,,,ANT_images/center.png,ANT_images/cong_l.png,0.25,e,1.2,0.1,1.7,Kay Sullivan,2020-08-24_16h06.58.658,ANT,2020.1.3,Win32,60,,,,,,0,1,10,58,14,1,0.5,,,,,,,,,,,
,,,,,,,,ANT_images/center.png,ANT_images/cong_r.png,-0.25,i,1.6,0.1,2.1,Kay Sullivan,2020-08-24_16h06.58.658,ANT,2020.1.3,Win32,60,,,,,,0,1,11,59,21,1,0.1,,,,,,,,,,,
,,,,,,,,ANT_images/none.png,ANT_images/cong_l.png,-0.25,e,0.1,0,0.5,Kay Sullivan,2020-08-24_16h06.58.658,ANT,2020.1.3,Win32,60,,,,,e,1,1,12,60,8,1,1.6,1.218125,,,,,,,,,,
,,,,,,,,ANT_images/center.png,ANT_images/neu_l.png,0.25,e,1.1,0.1,1.6,Kay Sullivan,2020-08-24_16h06.58.658,ANT,2020.1.3,Win32,60,,,,,,0,1,13,61,12,1,0.6,,,,,,,,,,,
,,,,,,,,ANT_images/down.png,ANT_images/neu_l.png,-0.25,e,0.8,0.1,1.3,Kay Sullivan,2020-08-24_16h06.58.658,ANT,2020.1.3,Win32,60,,,,,,0,1,14,62,42,1,0.9,,,,,,,,,,,
,,,,,,,,ANT_images/double.png,ANT_images/incong_l.png,0.25,e,1,0.1,1.5,Kay Sullivan,2020-08-24_16h06.58.658,ANT,2020.1.3,Win32,60,,,,,,0,1,15,63,28,1,0.7,,,,,,,,,,,
,,,,,,,,ANT_images/up.png,ANT_images/neu_r.png,0.25,i,0.8,0.1,1.3,Kay Sullivan,2020-08-24_16h06.58.658,ANT,2020.1.3,Win32,60,,,,,,0,1,16,64,37,1,0.9,,,,,,,,,,,
,,,,,,,,ANT_images/none.png,ANT_images/cong_r.png,-0.25,i,0.1,0,0.5,Kay Sullivan,2020-08-24_16h06.58.658,ANT,2020.1.3,Win32,60,,,,,i,1,1,17,65,9,1,1.6,1.153475,,,,,,,,,,
,,,,,,,,ANT_images/center.png,ANT_images/incong_l.png,0.25,e,0.5,0.1,1,Kay Sullivan,2020-08-24_16h06.58.658,ANT,2020.1.3,Win32,60,,,,,,0,1,18,66,16,1,1.2,,,,,,,,,,,
,,,,,,,,ANT_images/up.png,ANT_images/cong_r.png,0.25,i,1.4,0.1,1.9,Kay Sullivan,2020-08-24_16h06.58.658,ANT,2020.1.3,Win32,60,,,,,,0,1,19,67,39,1,0.3,,,,,,,,,,,
,,,,,,,,ANT_images/none.png,ANT_images/neu_r.png,-0.25,i,0.1,0,0.5,Kay Sullivan,2020-08-24_16h06.58.658,ANT,2020.1.3,Win32,60,,,,,i,1,1,20,68,7,1,1.6,1.205625,,,,,,,,,,
,,,,,,,,ANT_images/center.png,ANT_images/incong_r.png,0.25,i,0.4,0.1,0.9,Kay Sullivan,2020-08-24_16h06.58.658,ANT,2020.1.3,Win32,60,,,,,i,1,1,21,69,17,1,1.3,1.45457,,,,,,,,,,
,,,,,,,,ANT_images/none.png,ANT_images/cong_l.png,0.25,e,0.1,0,0.5,Kay Sullivan,2020-08-24_16h06.58.658,ANT,2020.1.3,Win32,60,,,,,e,1,1,22,70,2,1,1.6,1.155405,,,,,,,,,,
,,,,,,,,ANT_images/double.png,ANT_images/incong_r.png,0.25,i,0.9,0.1,1.4,Kay Sullivan,2020-08-24_16h06.58.658,ANT,2020.1.3,Win32,60,,,,,,0,1,23,71,29,1,0.8,,,,,,,,,,,
,,,,,,,,ANT_images/none.png,ANT_images/cong_r.png,0.25,i,0.1,0,0.5,Kay Sullivan,2020-08-24_16h06.58.658,ANT,2020.1.3,Win32,60,,,,,i,1,1,24,72,3,1,1.6,1.1016,,,,,,,,,,
,,,,,,,,ANT_images/up.png,ANT_images/neu_l.png,0.25,e,1.4,0.1,1.9,Kay Sullivan,2020-08-24_16h06.58.658,ANT,2020.1.3,Win32,60,,,,,,0,1,25,73,36,1,0.3,,,,,,,,,,,
,,,,,,,,ANT_images/down.png,ANT_images/neu_r.png,-0.25,i,0.6,0.1,1.1,Kay Sullivan,2020-08-24_16h06.58.658,ANT,2020.1.3,Win32,60,,,,,,0,1,26,74,43,1,1.1,,,,,,,,,,,
,,,,,,,,ANT_images/double.png,ANT_images/cong_l.png,-0.25,e,0.4,0.1,0.9,Kay Sullivan,2020-08-24_16h06.58.658,ANT,2020.1.3,Win32,60,,,,,e,1,1,27,75,32,1,1.3,1.531245,,,,,,,,,,
,,,,,,,,ANT_images/down.png,ANT_images/cong_l.png,-0.25,e,1.2,0.1,1.7,Kay Sullivan,2020-08-24_16h06.58.658,ANT,2020.1.3,Win32,60,,,,,,0,1,28,76,44,1,0.5,,,,,,,,,,,
,,,,,,,,ANT_images/double.png,ANT_images/cong_r.png,-0.25,i,1.1,0.1,1.6,Kay Sullivan,2020-08-24_16h06.58.658,ANT,2020.1.3,Win32,60,,,,,,0,1,29,77,33,1,0.6,,,,,,,,,,,
,,,,,,,,ANT_images/none.png,ANT_images/incong_r.png,0.25,i,0.1,0,0.5,Kay Sullivan,2020-08-24_16h06.58.658,ANT,2020.1.3,Win32,60,,,,,i,1,1,30,78,5,1,1.6,1.215055,,,,,,,,,,
,,,,,,,,ANT_images/none.png,ANT_images/neu_l.png,0.25,e,0.1,0,0.5,Kay Sullivan,2020-08-24_16h06.58.658,ANT,2020.1.3,Win32,60,,,,,e,1,1,31,79,0,1,1.6,1.113335,,,,,,,,,,
,,,,,,,,ANT_images/double.png,ANT_images/incong_l.png,-0.25,e,1.5,0.1,2,Kay Sullivan,2020-08-24_16h06.58.658,ANT,2020.1.3,Win32,60,,,,,,0,1,32,80,34,1,0.2,,,,,,,,,,,
,,,,,,,,ANT_images/double.png,ANT_images/neu_r.png,0.25,i,1.2,0.1,1.7,Kay Sullivan,2020-08-24_16h06.58.658,ANT,2020.1.3,Win32,60,,,,,,0,1,33,81,25,1,0.5,,,,,,,,,,,
,,,,,,,,ANT_images/double.png,ANT_images/cong_l.png,0.25,e,0.6,0.1,1.1,Kay Sullivan,2020-08-24_16h06.58.658,ANT,2020.1.3,Win32,60,,,,,,0,1,34,82,26,1,1.1,,,,,,,,,,,
,,,,,,,,ANT_images/none.png,ANT_images/incong_l.png,0.25,e,0.1,0,0.5,Kay Sullivan,2020-08-24_16h06.58.658,ANT,2020.1.3,Win32,60,,,,,e,1,1,35,83,4,1,1.6,1.17017,,,,,,,,,,
,,,,,,,,ANT_images/center.png,ANT_images/neu_r.png,-0.25,i,0.7,0.1,1.2,Kay Sullivan,2020-08-24_16h06.58.658,ANT,2020.1.3,Win32,60,,,,,,0,1,36,84,19,1,1,,,,,,,,,,,
,,,,,,,,ANT_images/double.png,ANT_images/incong_r.png,-0.25,i,1.6,0.1,2.1,Kay Sullivan,2020-08-24_16h06.58.658,ANT,2020.1.3,Win32,60,,,,,,0,1,37,85,35,1,0.1,,,,,,,,,,,
,,,,,,,,ANT_images/center.png,ANT_images/neu_l.png,-0.25,e,0.8,0.1,1.3,Kay Sullivan,2020-08-24_16h06.58.658,ANT,2020.1.3,Win32,60,,,,,,0,1,38,86,18,1,0.9,,,,,,,,,,,
,,,,,,,,ANT_images/down.png,ANT_images/incong_r.png,-0.25,i,1,0.1,1.5,Kay Sullivan,2020-08-24_16h06.58.658,ANT,2020.1.3,Win32,60,,,,,,0,1,39,87,47,1,0.7,,,,,,,,,,,
,,,,,,,,ANT_images/center.png,ANT_images/cong_l.png,-0.25,e,1.5,0.1,2,Kay Sullivan,2020-08-24_16h06.58.658,ANT,2020.1.3,Win32,60,,,,,,0,1,40,88,20,1,0.2,,,,,,,,,,,
,,,,,,,,ANT_images/none.png,ANT_images/incong_r.png,-0.25,i,0.1,0,0.5,Kay Sullivan,2020-08-24_16h06.58.658,ANT,2020.1.3,Win32,60,,,,,i,1,1,41,89,11,1,1.6,1.313385,,,,,,,,,,
,,,,,,,,ANT_images/up.png,ANT_images/cong_l.png,0.25,e,1.5,0.1,2,Kay Sullivan,2020-08-24_16h06.58.658,ANT,2020.1.3,Win32,60,,,,,,0,1,42,90,38,1,0.2,,,,,,,,,,,
,,,,,,,,ANT_images/double.png,ANT_images/neu_r.png,-0.25,i,0.7,0.1,1.2,Kay Sullivan,2020-08-24_16h06.58.658,ANT,2020.1.3,Win32,60,,,,,,0,1,43,91,31,1,1,,,,,,,,,,,
,,,,,,,,ANT_images/up.png,ANT_images/incong_r.png,0.25,i,0.9,0.1,1.4,Kay Sullivan,2020-08-24_16h06.58.658,ANT,2020.1.3,Win32,60,,,,,,0,1,44,92,41,1,0.8,,,,,,,,,,,
,,,,,,,,ANT_images/double.png,ANT_images/cong_r.png,0.25,i,1.3,0.1,1.8,Kay Sullivan,2020-08-24_16h06.58.658,ANT,2020.1.3,Win32,60,,,,,,0,1,45,93,27,1,0.4,,,,,,,,,,,
,,,,,,,,ANT_images/none.png,ANT_images/neu_l.png,-0.25,e,0.1,0,0.5,Kay Sullivan,2020-08-24_16h06.58.658,ANT,2020.1.3,Win32,60,,,,,e,1,1,46,94,6,1,1.6,1.186515,,,,,,,,,,
,,,,,,,,ANT_images/double.png,ANT_images/neu_l.png,-0.25,e,0.5,0.1,1,Kay Sullivan,2020-08-24_16h06.58.658,ANT,2020.1.3,Win32,60,,,,,,0,1,47,95,30,1,1.2,,,,,,,,,,,
,,,,,,,,,,,,,,,Kay Sullivan,2020-08-24_16h06.58.658,ANT,2020.1.3,Win32,60,,,,,,,,,,,,,,0,0,0,0,1,,,,,
,,,,,,,,ANT_images/down.png,ANT_images/neu_r.png,-0.25,i,0.6,0.1,1.1,Kay Sullivan,2020-08-24_16h06.58.658,ANT,2020.1.3,Win32,60,,,,,,0,0,0,0,43,1,1.1,,,,,,,,,,,
,,,,,,,,ANT_images/none.png,ANT_images/neu_l.png,-0.25,e,0.1,0,0.5,Kay Sullivan,2020-08-24_16h06.58.658,ANT,2020.1.3,Win32,60,,,,,e,1,0,1,1,6,1,1.6,1.206925,,,,,,,,,,
,,,,,,,,ANT_images/none.png,ANT_images/neu_r.png,-0.25,i,0.1,0,0.5,Kay Sullivan,2020-08-24_16h06.58.658,ANT,2020.1.3,Win32,60,,,,,i,1,0,2,2,7,1,1.6,1.14833,,,,,,,,,,
,,,,,,,,ANT_images/none.png,ANT_images/incong_l.png,0.25,e,0.1,0,0.5,Kay Sullivan,2020-08-24_16h06.58.658,ANT,2020.1.3,Win32,60,,,,,e,1,0,3,3,4,1,1.6,1.1729,,,,,,,,,,
,,,,,,,,ANT_images/none.png,ANT_images/cong_r.png,0.25,i,0.1,0,0.5,Kay Sullivan,2020-08-24_16h06.58.658,ANT,2020.1.3,Win32,60,,,,,i,1,0,4,4,3,1,1.6,1.11223,,,,,,,,,,
,,,,,,,,ANT_images/down.png,ANT_images/neu_l.png,-0.25,e,0.8,0.1,1.3,Kay Sullivan,2020-08-24_16h06.58.658,ANT,2020.1.3,Win32,60,,,,,,0,0,5,5,42,1,0.9,,,,,,,,,,,
,,,,,,,,ANT_images/double.png,ANT_images/cong_l.png,0.25,e,0.6,0.1,1.1,Kay Sullivan,2020-08-24_16h06.58.658,ANT,2020.1.3,Win32,60,,,,,,0,0,6,6,26,1,1.1,,,,,,,,,,,
,,,,,,,,ANT_images/double.png,ANT_images/incong_r.png,0.25,i,0.9,0.1,1.4,Kay Sullivan,2020-08-24_16h06.58.658,ANT,2020.1.3,Win32,60,,,,,,0,0,7,7,29,1,0.8,,,,,,,,,,,
,,,,,,,,ANT_images/none.png,ANT_images/incong_r.png,0.25,i,0.1,0,0.5,Kay Sullivan,2020-08-24_16h06.58.658,ANT,2020.1.3,Win32,60,,,,,i,1,0,8,8,5,1,1.6,1.1308,,,,,,,,,,
,,,,,,,,ANT_images/double.png,ANT_images/cong_r.png,0.25,i,1.3,0.1,1.8,Kay Sullivan,2020-08-24_16h06.58.658,ANT,2020.1.3,Win32,60,,,,,,0,0,9,9,27,1,0.4,,,,,,,,,,,
,,,,,,,,ANT_images/none.png,ANT_images/cong_l.png,-0.25,e,0.1,0,0.5,Kay Sullivan,2020-08-24_16h06.58.658,ANT,2020.1.3,Win32,60,,,,,,0,0,10,10,8,1,1.6,,,,,,,,,,,
,,,,,,,,ANT_images/center.png,ANT_images/neu_r.png,-0.25,i,0.7,0.1,1.2,Kay Sullivan,2020-08-24_16h06.58.658,ANT,2020.1.3,Win32,60,,,,,,0,0,11,11,19,1,1,,,,,,,,,,,
,,,,,,,,ANT_images/double.png,ANT_images/cong_r.png,-0.25,i,1.1,0.1,1.6,Kay Sullivan,2020-08-24_16h06.58.658,ANT,2020.1.3,Win32,60,,,,,,0,0,12,12,33,1,0.6,,,,,,,,,,,
,,,,,,,,ANT_images/center.png,ANT_images/neu_l.png,0.25,e,1.1,0.1,1.6,Kay Sullivan,2020-08-24_16h06.58.658,ANT,2020.1.3,Win32,60,,,,,,0,0,13,13,12,1,0.6,,,,,,,,,,,
,,,,,,,,ANT_images/none.png,ANT_images/incong_r.png,-0.25,i,0.1,0,0.5,Kay Sullivan,2020-08-24_16h06.58.658,ANT,2020.1.3,Win32,60,,,,,i,1,0,14,14,11,1,1.6,1.113335,,,,,,,,,,
,,,,,,,,ANT_images/none.png,ANT_images/cong_l.png,0.25,e,0.1,0,0.5,Kay Sullivan,2020-08-24_16h06.58.658,ANT,2020.1.3,Win32,60,,,,,e,1,0,15,15,2,1,1.6,1.216875,,,,,,,,,,
,,,,,,,,ANT_images/up.png,ANT_images/cong_r.png,0.25,i,1.4,0.1,1.9,Kay Sullivan,2020-08-24_16h06.58.658,ANT,2020.1.3,Win32,60,,,,,,0,0,16,16,39,1,0.3,,,,,,,,,,,
,,,,,,,,ANT_images/down.png,ANT_images/cong_r.png,-0.25,i,0.4,0.1,0.9,Kay Sullivan,2020-08-24_16h06.58.658,ANT,2020.1.3,Win32,60,,,,,i,1,0,17,17,45,1,1.3,1.45556,,,,,,,,,,
,,,,,,,,ANT_images/none.png,ANT_images/incong_l.png,-0.25,e,0.1,0,0.5,Kay Sullivan,2020-08-24_16h06.58.658,ANT,2020.1.3,Win32,60,,,,,e,1,0,18,18,10,1,1.6,1.298205,,,,,,,,,,
,,,,,,,,ANT_images/up.png,ANT_images/cong_l.png,0.25,e,1.5,0.1,2,Kay Sullivan,2020-08-24_16h06.58.658,ANT,2020.1.3,Win32,60,,,,,,0,0,19,19,38,1,0.2,,,,,,,,,,,
,,,,,,,,ANT_images/double.png,ANT_images/incong_l.png,0.25,e,1,0.1,1.5,Kay Sullivan,2020-08-24_16h06.58.658,ANT,2020.1.3,Win32,60,,,,,,0,0,20,20,28,1,0.7,,,,,,,,,,,
,,,,,,,,ANT_images/center.png,ANT_images/neu_l.png,-0.25,e,0.8,0.1,1.3,Kay Sullivan,2020-08-24_16h06.58.658,ANT,2020.1.3,Win32,60,,,,,,0,0,21,21,18,1,0.9,,,,,,,,,,,
,,,,,,,,ANT_images/up.png,ANT_images/neu_r.png,0.25,i,0.8,0.1,1.3,Kay Sullivan,2020-08-24_16h06.58.658,ANT,2020.1.3,Win32,60,,,,,,0,0,22,22,37,1,0.9,,,,,,,,,,,
,,,,,,,,ANT_images/down.png,ANT_images/incong_r.png,-0.25,i,1,0.1,1.5,Kay Sullivan,2020-08-24_16h06.58.658,ANT,2020.1.3,Win32,60,,,,,,0,0,23,23,47,1,0.7,,,,,,,,,,,
,,,,,,,,ANT_images/center.png,ANT_images/cong_r.png,-0.25,i,1.6,0.1,2.1,Kay Sullivan,2020-08-24_16h06.58.658,ANT,2020.1.3,Win32,60,,,,,,0,0,24,24,21,1,0.1,,,,,,,,,,,
,,,,,,,,ANT_images/double.png,ANT_images/neu_r.png,0.25,i,1.2,0.1,1.7,Kay Sullivan,2020-08-24_16h06.58.658,ANT,2020.1.3,Win32,60,,,,,,0,0,25,25,25,1,0.5,,,,,,,,,,,
,,,,,,,,ANT_images/double.png,ANT_images/cong_l.png,-0.25,e,0.4,0.1,0.9,Kay Sullivan,2020-08-24_16h06.58.658,ANT,2020.1.3,Win32,60,,,,,e,1,0,26,26,32,1,1.3,1.524495,,,,,,,,,,
,,,,,,,,ANT_images/up.png,ANT_images/incong_l.png,0.25,e,0.5,0.1,1,Kay Sullivan,2020-08-24_16h06.58.658,ANT,2020.1.3,Win32,60,,,,,,0,0,27,27,40,1,1.2,,,,,,,,,,,
,,,,,,,,ANT_images/none.png,ANT_images/neu_l.png,0.25,e,0.1,0,0.5,Kay Sullivan,2020-08-24_16h06.58.658,ANT,2020.1.3,Win32,60,,,,,e,1,0,28,28,0,1,1.6,1.151925,,,,,,,,,,
,,,,,,,,ANT_images/center.png,ANT_images/neu_r.png,0.25,i,1,0.1,1.5,Kay Sullivan,2020-08-24_16h06.58.658,ANT,2020.1.3,Win32,60,,,,,,0,0,29,29,13,1,0.7,,,,,,,,,,,
,,,,,,,,ANT_images/center.png,ANT_images/incong_l.png,0.25,e,0.5,0.1,1,Kay Sullivan,2020-08-24_16h06.58.658,ANT,2020.1.3,Win32,60,,,,,,0,0,30,30,16,1,1.2,,,,,,,,,,,
,,,,,,,,ANT_images/double.png,ANT_images/neu_l.png,0.25,e,0.6,0.1,1.1,Kay Sullivan,2020-08-24_16h06.58.658,ANT,2020.1.3,Win32,60,,,,,,0,0,31,31,24,1,1.1,,,,,,,,,,,
,,,,,,,,ANT_images/center.png,ANT_images/cong_l.png,-0.25,e,1.5,0.1,2,Kay Sullivan,2020-08-24_16h06.58.658,ANT,2020.1.3,Win32,60,,,,,,0,0,32,32,20,1,0.2,,,,,,,,,,,
,,,,,,,,ANT_images/center.png,ANT_images/cong_r.png,0.25,i,1.4,0.1,1.9,Kay Sullivan,2020-08-24_16h06.58.658,ANT,2020.1.3,Win32,60,,,,,,0,0,33,33,15,1,0.3,,,,,,,,,,,
,,,,,,,,ANT_images/double.png,ANT_images/incong_r.png,-0.25,i,1.6,0.1,2.1,Kay Sullivan,2020-08-24_16h06.58.658,ANT,2020.1.3,Win32,60,,,,,,0,0,34,34,35,1,0.1,,,,,,,,,,,
,,,,,,,,ANT_images/up.png,ANT_images/neu_l.png,0.25,e,1.4,0.1,1.9,Kay Sullivan,2020-08-24_16h06.58.658,ANT,2020.1.3,Win32,60,,,,,,0,0,35,35,36,1,0.3,,,,,,,,,,,
,,,,,,,,ANT_images/center.png,ANT_images/incong_r.png,-0.25,i,0.9,0.1,1.4,Kay Sullivan,2020-08-24_16h06.58.658,ANT,2020.1.3,Win32,60,,,,,,0,0,36,36,23,1,0.8,,,,,,,,,,,
,,,,,,,,ANT_images/double.png,ANT_images/neu_r.png,-0.25,i,0.7,0.1,1.2,Kay Sullivan,2020-08-24_16h06.58.658,ANT,2020.1.3,Win32,60,,,,,,0,0,37,37,31,1,1,,,,,,,,,,,
,,,,,,,,ANT_images/none.png,ANT_images/neu_r.png,0.25,i,0.1,0,0.5,Kay Sullivan,2020-08-24_16h06.58.658,ANT,2020.1.3,Win32,60,,,,,i,1,0,38,38,1,1,1.6,1.39091,,,,,,,,,,
,,,,,,,,ANT_images/double.png,ANT_images/incong_l.png,-0.25,e,1.5,0.1,2,Kay Sullivan,2020-08-24_16h06.58.658,ANT,2020.1.3,Win32,60,,,,,,0,0,39,39,34,1,0.2,,,,,,,,,,,
,,,,,,,,ANT_images/double.png,ANT_images/neu_l.png,-0.25,e,0.5,0.1,1,Kay Sullivan,2020-08-24_16h06.58.658,ANT,2020.1.3,Win32,60,,,,,e,1,0,40,40,30,1,1.2,1.58217,,,,,,,,,,
,,,,,,,,ANT_images/none.png,ANT_images/cong_r.png,-0.25,i,0.1,0,0.5,Kay Sullivan,2020-08-24_16h06.58.658,ANT,2020.1.3,Win32,60,,,,,i,1,0,41,41,9,1,1.6,1.17099,,,,,,,,,,
,,,,,,,,ANT_images/center.png,ANT_images/cong_l.png,0.25,e,1.2,0.1,1.7,Kay Sullivan,2020-08-24_16h06.58.658,ANT,2020.1.3,Win32,60,,,,,,0,0,42,42,14,1,0.5,,,,,,,,,,,
,,,,,,,,ANT_images/up.png,ANT_images/incong_r.png,0.25,i,0.9,0.1,1.4,Kay Sullivan,2020-08-24_16h06.58.658,ANT,2020.1.3,Win32,60,,,,,,0,0,43,43,41,1,0.8,,,,,,,,,,,
,,,,,,,,ANT_images/center.png,ANT_images/incong_l.png,-0.25,e,1.3,0.1,1.8,Kay Sullivan,2020-08-24_16h06.58.658,ANT,2020.1.3,Win32,60,,,,,,0,0,44,44,22,1,0.4,,,,,,,,,,,
,,,,,,,,ANT_images/down.png,ANT_images/incong_l.png,-0.25,e,1.3,0.1,1.8,Kay Sullivan,2020-08-24_16h06.58.658,ANT,2020.1.3,Win32,60,,,,,,0,0,45,45,46,1,0.4,,,,,,,,,,,
,,,,,,,,ANT_images/down.png,ANT_images/cong_l.png,-0.25,e,1.2,0.1,1.7,Kay Sullivan,2020-08-24_16h06.58.658,ANT,2020.1.3,Win32,60,,,,,,0,0,46,46,44,1,0.5,,,,,,,,,,,
,,,,,,,,ANT_images/center.png,ANT_images/incong_r.png,0.25,i,0.4,0.1,0.9,Kay Sullivan,2020-08-24_16h06.58.658,ANT,2020.1.3,Win32,60,,,,,i,1,0,47,47,17,1,1.3,1.61397,,,,,,,,,,
,,,,,,,,ANT_images/down.png,ANT_images/incong_r.png,-0.25,i,1,0.1,1.5,Kay Sullivan,2020-08-24_16h06.58.658,ANT,2020.1.3,Win32,60,,,,,,0,1,0,48,47,1,0.7,,,,,,,,,,,
,,,,,,,,ANT_images/center.png,ANT_images/cong_l.png,-0.25,e,1.5,0.1,2,Kay Sullivan,2020-08-24_16h06.58.658,ANT,2020.1.3,Win32,60,,,,,,0,1,1,49,20,1,0.2,,,,,,,,,,,
,,,,,,,,ANT_images/double.png,ANT_images/neu_l.png,0.25,e,0.6,0.1,1.1,Kay Sullivan,2020-08-24_16h06.58.658,ANT,2020.1.3,Win32,60,,,,,,0,1,2,50,24,1,1.1,,,,,,,,,,,
,,,,,,,,ANT_images/none.png,ANT_images/cong_l.png,-0.25,e,0.1,0,0.5,Kay Sullivan,2020-08-24_16h06.58.658,ANT,2020.1.3,Win32,60,,,,,e,1,1,3,51,8,1,1.6,1.13136,,,,,,,,,,
,,,,,,,,ANT_images/double.png,ANT_images/cong_r.png,0.25,i,1.3,0.1,1.8,Kay Sullivan,2020-08-24_16h06.58.658,ANT,2020.1.3,Win32,60,,,,,,0,1,4,52,27,1,0.4,,,,,,,,,,,
,,,,,,,,ANT_images/up.png,ANT_images/neu_l.png,0.25,e,1.4,0.1,1.9,Kay Sullivan,2020-08-24_16h06.58.658,ANT,2020.1.3,Win32,60,,,,,,0,1,5,53,36,1,0.3,,,,,,,,,,,
,,,,,,,,ANT_images/down.png,ANT_images/cong_r.png,-0.25,i,0.4,0.1,0.9,Kay Sullivan,2020-08-24_16h06.58.658,ANT,2020.1.3,Win32,60,,,,,i,1,1,6,54,45,1,1.3,1.470065,,,,,,,,,,
,,,,,,,,ANT_images/double.png,ANT_images/incong_r.png,0.25,i,0.9,0.1,1.4,Kay Sullivan,2020-08-24_16h06.58.658,ANT,2020.1.3,Win32,60,,,,,,0,1,7,55,29,1,0.8,,,,,,,,,,,
,,,,,,,,ANT_images/down.png,ANT_images/incong_l.png,-0.25,e,1.3,0.1,1.8,Kay Sullivan,2020-08-24_16h06.58.658,ANT,2020.1.3,Win32,60,,,,,,0,1,8,56,46,1,0.4,,,,,,,,,,,
,,,,,,,,ANT_images/none.png,ANT_images/incong_r.png,-0.25,i,0.1,0,0.5,Kay Sullivan,2020-08-24_16h06.58.658,ANT,2020.1.3,Win32,60,,,,,i,1,1,9,57,11,1,1.6,1.367465,,,,,,,,,,
,,,,,,,,ANT_images/double.png,ANT_images/cong_l.png,0.25,e,0.6,0.1,1.1,Kay Sullivan,2020-08-24_16h06.58.658,ANT,2020.1.3,Win32,60,,,,,e,1,1,10,58,26,1,1.1,1.64306,,,,,,,,,,
,,,,,,,,ANT_images/up.png,ANT_images/neu_r.png,0.25,i,0.8,0.1,1.3,Kay Sullivan,2020-08-24_16h06.58.658,ANT,2020.1.3,Win32,60,,,,,,0,1,11,59,37,1,0.9,,,,,,,,,,,
,,,,,,,,ANT_images/down.png,ANT_images/neu_r.png,-0.25,i,0.6,0.1,1.1,Kay Sullivan,2020-08-24_16h06.58.658,ANT,2020.1.3,Win32,60,,,,,,0,1,12,60,43,1,1.1,,,,,,,,,,,
,,,,,,,,ANT_images/center.png,ANT_images/neu_l.png,-0.25,e,0.8,0.1,1.3,Kay Sullivan,2020-08-24_16h06.58.658,ANT,2020.1.3,Win32,60,,,,,,0,1,13,61,18,1,0.9,,,,,,,,,,,
,,,,,,,,ANT_images/none.png,ANT_images/neu_r.png,0.25,i,0.1,0,0.5,Kay Sullivan,2020-08-24_16h06.58.658,ANT,2020.1.3,Win32,60,,,,,i,1,1,14,62,1,1,1.6,1.10668,,,,,,,,,,
,,,,,,,,ANT_images/down.png,ANT_images/cong_l.png,-0.25,e,1.2,0.1,1.7,Kay Sullivan,2020-08-24_16h06.58.658,ANT,2020.1.3,Win32,60,,,,,,0,1,15,63,44,1,0.5,,,,,,,,,,,
,,,,,,,,ANT_images/none.png,ANT_images/incong_l.png,-0.25,e,0.1,0,0.5,Kay Sullivan,2020-08-24_16h06.58.658,ANT,2020.1.3,Win32,60,,,,,e,1,1,16,64,10,1,1.6,1.49857,,,,,,,,,,
,,,,,,,,ANT_images/up.png,ANT_images/cong_r.png,0.25,i,1.4,0.1,1.9,Kay Sullivan,2020-08-24_16h06.58.658,ANT,2020.1.3,Win32,60,,,,,,0,1,17,65,39,1,0.3,,,,,,,,,,,
,,,,,,,,ANT_images/center.png,ANT_images/neu_r.png,0.25,i,1,0.1,1.5,Kay Sullivan,2020-08-24_16h06.58.658,ANT,2020.1.3,Win32,60,,,,,,0,1,18,66,13,1,0.7,,,,,,,,,,,
,,,,,,,,ANT_images/center.png,ANT_images/cong_r.png,0.25,i,1.4,0.1,1.9,Kay Sullivan,2020-08-24_16h06.58.658,ANT,2020.1.3,Win32,60,,,,,,0,1,19,67,15,1,0.3,,,,,,,,,,,
,,,,,,,,ANT_images/double.png,ANT_images/cong_l.png,-0.25,e,0.4,0.1,0.9,Kay Sullivan,2020-08-24_16h06.58.658,ANT,2020.1.3,Win32,60,,,,,e,1,1,20,68,32,1,1.3,1.501375,,,,,,,,,,
,,,,,,,,ANT_images/up.png,ANT_images/incong_r.png,0.25,i,0.9,0.1,1.4,Kay Sullivan,2020-08-24_16h06.58.658,ANT,2020.1.3,Win32,60,,,,,,0,1,21,69,41,1,0.8,,,,,,,,,,,
,,,,,,,,ANT_images/center.png,ANT_images/neu_l.png,0.25,e,1.1,0.1,1.6,Kay Sullivan,2020-08-24_16h06.58.658,ANT,2020.1.3,Win32,60,,,,,,0,1,22,70,12,1,0.6,,,,,,,,,,,
,,,,,,,,ANT_images/double.png,ANT_images/neu_r.png,-0.25,i,0.7,0.1,1.2,Kay Sullivan,2020-08-24_16h06.58.658,ANT,2020.1.3,Win32,60,,,,,,0,1,23,71,31,1,1,,,,,,,,,,,
,,,,,,,,ANT_images/double.png,ANT_images/incong_l.png,-0.25,e,1.5,0.1,2,Kay Sullivan,2020-08-24_16h06.58.658,ANT,2020.1.3,Win32,60,,,,,,0,1,24,72,34,1,0.2,,,,,,,,,,,
,,,,,,,,ANT_images/center.png,ANT_images/cong_r.png,-0.25,i,1.6,0.1,2.1,Kay Sullivan,2020-08-24_16h06.58.658,ANT,2020.1.3,Win32,60,,,,,,0,1,25,73,21,1,0.1,,,,,,,,,,,
,,,,,,,,ANT_images/center.png,ANT_images/cong_l.png,0.25,e,1.2,0.1,1.7,Kay Sullivan,2020-08-24_16h06.58.658,ANT,2020.1.3,Win32,60,,,,,,0,1,26,74,14,1,0.5,,,,,,,,,,,
,,,,,,,,ANT_images/none.png,ANT_images/incong_r.png,0.25,i,0.1,0,0.5,Kay Sullivan,2020-08-24_16h06.58.658,ANT,2020.1.3,Win32,60,,,,,i,1,1,27,75,5,1,1.6,1.279675,,,,,,,,,,
,,,,,,,,ANT_images/center.png,ANT_images/neu_r.png,-0.25,i,0.7,0.1,1.2,Kay Sullivan,2020-08-24_16h06.58.658,ANT,2020.1.3,Win32,60,,,,,,0,1,28,76,19,1,1,,,,,,,,,,,
,,,,,,,,ANT_images/none.png,ANT_images/incong_l.png,0.25,e,0.1,0,0.5,Kay Sullivan,2020-08-24_16h06.58.658,ANT,2020.1.3,Win32,60,,,,,e,1,1,29,77,4,1,1.6,1.247715,,,,,,,,,,
,,,,,,,,ANT_images/none.png,ANT_images/neu_r.png,-0.25,i,0.1,0,0.5,Kay Sullivan,2020-08-24_16h06.58.658,ANT,2020.1.3,Win32,60,,,,,i,1,1,30,78,7,1,1.6,1.30636,,,,,,,,,,
,,,,,,,,ANT_images/none.png,ANT_images/cong_r.png,-0.25,i,0.1,0,0.5,Kay Sullivan,2020-08-24_16h06.58.658,ANT,2020.1.3,Win32,60,,,,,i,1,1,31,79,9,1,1.6,1.0888,,,,,,,,,,
,,,,,,,,ANT_images/up.png,ANT_images/incong_l.png,0.25,e,0.5,0.1,1,Kay Sullivan,2020-08-24_16h06.58.658,ANT,2020.1.3,Win32,60,,,,,,0,1,32,80,40,1,1.2,,,,,,,,,,,
,,,,,,,,ANT_images/down.png,ANT_images/neu_l.png,-0.25,e,0.8,0.1,1.3,Kay Sullivan,2020-08-24_16h06.58.658,ANT,2020.1.3,Win32,60,,,,,,0,1,33,81,42,1,0.9,,,,,,,,,,,
,,,,,,,,ANT_images/double.png,ANT_images/incong_r.png,-0.25,i,1.6,0.1,2.1,Kay Sullivan,2020-08-24_16h06.58.658,ANT,2020.1.3,Win32,60,,,,,,0,1,34,82,35,1,0.1,,,,,,,,,,,
,,,,,,,,ANT_images/double.png,ANT_images/cong_r.png,-0.25,i,1.1,0.1,1.6,Kay Sullivan,2020-08-24_16h06.58.658,ANT,2020.1.3,Win32,60,,,,,,0,1,35,83,33,1,0.6,,,,,,,,,,,
,,,,,,,,ANT_images/up.png,ANT_images/cong_l.png,0.25,e,1.5,0.1,2,Kay Sullivan,2020-08-24_16h06.58.658,ANT,2020.1.3,Win32,60,,,,,,0,1,36,84,38,1,0.2,,,,,,,,,,,
,,,,,,,,ANT_images/center.png,ANT_images/incong_r.png,0.25,i,0.4,0.1,0.9,Kay Sullivan,2020-08-24_16h06.58.658,ANT,2020.1.3,Win32,60,,,,,i,1,1,37,85,17,1,1.3,1.564405,,,,,,,,,,
,,,,,,,,ANT_images/center.png,ANT_images/incong_l.png,0.25,e,0.5,0.1,1,Kay Sullivan,2020-08-24_16h06.58.658,ANT,2020.1.3,Win32,60,,,,,e,1,1,38,86,16,1,1.2,1.62649,,,,,,,,,,
,,,,,,,,ANT_images/double.png,ANT_images/incong_l.png,0.25,e,1,0.1,1.5,Kay Sullivan,2020-08-24_16h06.58.658,ANT,2020.1.3,Win32,60,,,,,,0,1,39,87,28,1,0.7,,,,,,,,,,,
,,,,,,,,ANT_images/double.png,ANT_images/neu_r.png,0.25,i,1.2,0.1,1.7,Kay Sullivan,2020-08-24_16h06.58.658,ANT,2020.1.3,Win32,60,,,,,,0,1,40,88,25,1,0.5,,,,,,,,,,,
,,,,,,,,ANT_images/none.png,ANT_images/cong_r.png,0.25,i,0.1,0,0.5,Kay Sullivan,2020-08-24_16h06.58.658,ANT,2020.1.3,Win32,60,,,,,i,1,1,41,89,3,1,1.6,1.089075,,,,,,,,,,
,,,,,,,,ANT_images/double.png,ANT_images/neu_l.png,-0.25,e,0.5,0.1,1,Kay Sullivan,2020-08-24_16h06.58.658,ANT,2020.1.3,Win32,60,,,,,e,1,1,42,90,30,1,1.2,1.59873,,,,,,,,,,
,,,,,,,,ANT_images/none.png,ANT_images/neu_l.png,0.25,e,0.1,0,0.5,Kay Sullivan,2020-08-24_16h06.58.658,ANT,2020.1.3,Win32,60,,,,,e,1,1,43,91,0,1,1.6,1.14149,,,,,,,,,,
,,,,,,,,ANT_images/center.png,ANT_images/incong_r.png,-0.25,i,0.9,0.1,1.4,Kay Sullivan,2020-08-24_16h06.58.658,ANT,2020.1.3,Win32,60,,,,,,0,1,44,92,23,1,0.8,,,,,,,,,,,
,,,,,,,,ANT_images/center.png,ANT_images/incong_l.png,-0.25,e,1.3,0.1,1.8,Kay Sullivan,2020-08-24_16h06.58.658,ANT,2020.1.3,Win32,60,,,,,,0,1,45,93,22,1,0.4,,,,,,,,,,,
,,,,,,,,ANT_images/none.png,ANT_images/cong_l.png,0.25,e,0.1,0,0.5,Kay Sullivan,2020-08-24_16h06.58.658,ANT,2020.1.3,Win32,60,,,,,e,1,1,46,94,2,1,1.6,1.221715,,,,,,,,,,
,,,,,,,,ANT_images/none.png,ANT_images/neu_l.png,-0.25,e,0.1,0,0.5,Kay Sullivan,2020-08-24_16h06.58.658,ANT,2020.1.3,Win32,60,,,,,e,1,1,47,95,6,1,1.6,1.12078,,,,,,,,,,
,,,,,,,,ANT_images/center.png,ANT_images/incong_r.png,0.25,i,0.4,0.1,0.9,Kay Sullivan,2020-08-24_16h06.58.658,ANT,2020.1.3,Win32,60,,,,,,0,,,,,,1.3,,,,,,,0,0,0,17,1
,,,,,,,,ANT_images/center.png,ANT_images/neu_l.png,0.25,e,1.1,0.1,1.6,Kay Sullivan,2020-08-24_16h06.58.658,ANT,2020.1.3,Win32,60,,,,,,0,,,,,,0.6,,,,,,,0,1,1,12,1
,,,,,,,,ANT_images/center.png,ANT_images/incong_l.png,0.25,e,0.5,0.1,1,Kay Sullivan,2020-08-24_16h06.58.658,ANT,2020.1.3,Win32,60,,,,,e,1,,,,,,1.2,1.63447,,,,,,0,2,2,16,1
,,,,,,,,ANT_images/up.png,ANT_images/incong_l.png,0.25,e,0.5,0.1,1,Kay Sullivan,2020-08-24_16h06.58.658,ANT,2020.1.3,Win32,60,,,,,e,1,,,,,,1.2,1.521795,,,,,,0,3,3,40,1
,,,,,,,,ANT_images/down.png,ANT_images/cong_r.png,-0.25,i,0.4,0.1,0.9,Kay Sullivan,2020-08-24_16h06.58.658,ANT,2020.1.3,Win32,60,,,,,i,1,,,,,,1.3,1.600435,,,,,,0,4,4,45,1
,,,,,,,,ANT_images/none.png,ANT_images/cong_l.png,0.25,e,0.1,0,0.5,Kay Sullivan,2020-08-24_16h06.58.658,ANT,2020.1.3,Win32,60,,,,,e,1,,,,,,1.6,1.13655,,,,,,0,5,5,2,1
,,,,,,,,ANT_images/none.png,ANT_images/incong_r.png,0.25,i,0.1,0,0.5,Kay Sullivan,2020-08-24_16h06.58.658,ANT,2020.1.3,Win32,60,,,,,i,1,,,,,,1.6,1.14012,,,,,,0,6,6,5,1
,,,,,,,,ANT_images/double.png,ANT_images/incong_l.png,-0.25,e,1.5,0.1,2,Kay Sullivan,2020-08-24_16h06.58.658,ANT,2020.1.3,Win32,60,,,,,,0,,,,,,0.2,,,,,,,0,7,7,34,1
,,,,,,,,ANT_images/double.png,ANT_images/neu_r.png,0.25,i,1.2,0.1,1.7,Kay Sullivan,2020-08-24_16h06.58.658,ANT,2020.1.3,Win32,60,,,,,,0,,,,,,0.5,,,,,,,0,8,8,25,1
,,,,,,,,ANT_images/none.png,ANT_images/incong_l.png,-0.25,e,0.1,0,0.5,Kay Sullivan,2020-08-24_16h06.58.658,ANT,2020.1.3,Win32,60,,,,,e,1,,,,,,1.6,1.25926,,,,,,0,9,9,10,1
,,,,,,,,ANT_images/none.png,ANT_images/cong_l.png,-0.25,e,0.1,0,0.5,Kay Sullivan,2020-08-24_16h06.58.658,ANT,2020.1.3,Win32,60,,,,,e,1,,,,,,1.6,1.16416,,,,,,0,10,10,8,1
,,,,,,,,ANT_images/none.png,ANT_images/cong_r.png,-0.25,i,0.1,0,0.5,Kay Sullivan,2020-08-24_16h06.58.658,ANT,2020.1.3,Win32,60,,,,,i,1,,,,,,1.6,1.0648,,,,,,0,11,11,9,1
,,,,,,,,ANT_images/center.png,ANT_images/cong_l.png,-0.25,e,1.5,0.1,2,Kay Sullivan,2020-08-24_16h06.58.658,ANT,2020.1.3,Win32,60,,,,,,0,,,,,,0.2,,,,,,,0,12,12,20,1
,,,,,,,,ANT_images/down.png,ANT_images/incong_l.png,-0.25,e,1.3,0.1,1.8,Kay Sullivan,2020-08-24_16h06.58.658,ANT,2020.1.3,Win32,60,,,,,,0,,,,,,0.4,,,,,,,0,13,13,46,1
,,,,,,,,ANT_images/center.png,ANT_images/cong_r.png,0.25,i,1.4,0.1,1.9,Kay Sullivan,2020-08-24_16h06.58.658,ANT,2020.1.3,Win32,60,,,,,,0,,,,,,0.3,,,,,,,0,14,14,15,1
,,,,,,,,ANT_images/center.png,ANT_images/incong_l.png,-0.25,e,1.3,0.1,1.8,Kay Sullivan,2020-08-24_16h06.58.658,ANT,2020.1.3,Win32,60,,,,,,0,,,,,,0.4,,,,,,,0,15,15,22,1
,,,,,,,,ANT_images/none.png,ANT_images/neu_r.png,-0.25,i,0.1,0,0.5,Kay Sullivan,2020-08-24_16h06.58.658,ANT,2020.1.3,Win32,60,,,,,i,1,,,,,,1.6,1.20829,,,,,,0,16,16,7,1
,,,,,,,,ANT_images/center.png,ANT_images/cong_l.png,0.25,e,1.2,0.1,1.7,Kay Sullivan,2020-08-24_16h06.58.658,ANT,2020.1.3,Win32,60,,,,,,0,,,,,,0.5,,,,,,,0,17,17,14,1
,,,,,,,,ANT_images/double.png,ANT_images/cong_l.png,-0.25,e,0.4,0.1,0.9,Kay Sullivan,2020-08-24_16h06.58.658,ANT,2020.1.3,Win32,60,,,,,e,1,,,,,,1.3,1.579325,,,,,,0,18,18,32,1
,,,,,,,,ANT_images/up.png,ANT_images/neu_r.png,0.25,i,0.8,0.1,1.3,Kay Sullivan,2020-08-24_16h06.58.658,ANT,2020.1.3,Win32,60,,,,,,0,,,,,,0.9,,,,,,,0,19,19,37,1
,,,,,,,,ANT_images/center.png,ANT_images/neu_r.png,0.25,i,1,0.1,1.5,Kay Sullivan,2020-08-24_16h06.58.658,ANT,2020.1.3,Win32,60,,,,,,0,,,,,,0.7,,,,,,,0,20,20,13,1
,,,,,,,,ANT_images/center.png,ANT_images/neu_r.png,-0.25,i,0.7,0.1,1.2,Kay Sullivan,2020-08-24_16h06.58.658,ANT,2020.1.3,Win32,60,,,,,,0,,,,,,1,,,,,,,0,21,21,19,1
,,,,,,,,ANT_images/down.png,ANT_images/cong_l.png,-0.25,e,1.2,0.1,1.7,Kay Sullivan,2020-08-24_16h06.58.658,ANT,2020.1.3,Win32,60,,,,,,0,,,,,,0.5,,,,,,,0,22,22,44,1
,,,,,,,,ANT_images/none.png,ANT_images/neu_l.png,-0.25,e,0.1,0,0.5,Kay Sullivan,2020-08-24_16h06.58.658,ANT,2020.1.3,Win32,60,,,,,e,1,,,,,,1.6,1.19893,,,,,,0,23,23,6,1
,,,,,,,,ANT_images/down.png,ANT_images/neu_r.png,-0.25,i,0.6,0.1,1.1,Kay Sullivan,2020-08-24_16h06.58.658,ANT,2020.1.3,Win32,60,,,,,,0,,,,,,1.1,,,,,,,0,24,24,43,1
,,,,,,,,ANT_images/none.png,ANT_images/cong_r.png,0.25,i,0.1,0,0.5,Kay Sullivan,2020-08-24_16h06.58.658,ANT,2020.1.3,Win32,60,,,,,i,1,,,,,,1.6,1.150295,,,,,,0,25,25,3,1
,,,,,,,,ANT_images/none.png,ANT_images/neu_r.png,0.25,i,0.1,0,0.5,Kay Sullivan,2020-08-24_16h06.58.658,ANT,2020.1.3,Win32,60,,,,,i,1,,,,,,1.6,0.982865,,,,,,0,26,26,1,1
,,,,,,,,ANT_images/double.png,ANT_images/neu_l.png,-0.25,e,0.5,0.1,1,Kay Sullivan,2020-08-24_16h06.58.658,ANT,2020.1.3,Win32,60,,,,,e,1,,,,,,1.2,1.565955,,,,,,0,27,27,30,1
,,,,,,,,ANT_images/center.png,ANT_images/incong_r.png,-0.25,i,0.9,0.1,1.4,Kay Sullivan,2020-08-24_16h06.58.658,ANT,2020.1.3,Win32,60,,,,,,0,,,,,,0.8,,,,,,,0,28,28,23,1
,,,,,,,,ANT_images/double.png,ANT_images/cong_r.png,0.25,i,1.3,0.1,1.8,Kay Sullivan,2020-08-24_16h06.58.658,ANT,2020.1.3,Win32,60,,,,,,0,,,,,,0.4,,,,,,,0,29,29,27,1
,,,,,,,,ANT_images/double.png,ANT_images/neu_r.png,-0.25,i,0.7,0.1,1.2,Kay Sullivan,2020-08-24_16h06.58.658,ANT,2020.1.3,Win32,60,,,,,,0,,,,,,1,,,,,,,0,30,30,31,1
,,,,,,,,ANT_images/down.png,ANT_images/incong_r.png,-0.25,i,1,0.1,1.5,Kay Sullivan,2020-08-24_16h06.58.658,ANT,2020.1.3,Win32,60,,,,,,0,,,,,,0.7,,,,,,,0,31,31,47,1
,,,,,,,,ANT_images/double.png,ANT_images/neu_l.png,0.25,e,0.6,0.1,1.1,Kay Sullivan,2020-08-24_16h06.58.658,ANT,2020.1.3,Win32,60,,,,,,0,,,,,,1.1,,,,,,,0,32,32,24,1
,,,,,,,,ANT_images/up.png,ANT_images/incong_r.png,0.25,i,0.9,0.1,1.4,Kay Sullivan,2020-08-24_16h06.58.658,ANT,2020.1.3,Win32,60,,,,,,0,,,,,,0.8,,,,,,,0,33,33,41,1
,,,,,,,,ANT_images/up.png,ANT_images/cong_l.png,0.25,e,1.5,0.1,2,Kay Sullivan,2020-08-24_16h06.58.658,ANT,2020.1.3,Win32,60,,,,,,0,,,,,,0.2,,,,,,,0,34,34,38,1
,,,,,,,,ANT_images/none.png,ANT_images/incong_r.png,-0.25,i,0.1,0,0.5,Kay Sullivan,2020-08-24_16h06.58.658,ANT,2020.1.3,Win32,60,,,,,i,1,,,,,,1.6,1.25913,,,,,,0,35,35,11,1
,,,,,,,,ANT_images/up.png,ANT_images/cong_r.png,0.25,i,1.4,0.1,1.9,Kay Sullivan,2020-08-24_16h06.58.658,ANT,2020.1.3,Win32,60,,,,,,0,,,,,,0.3,,,,,,,0,36,36,39,1
,,,,,,,,ANT_images/none.png,ANT_images/neu_l.png,0.25,e,0.1,0,0.5,Kay Sullivan,2020-08-24_16h06.58.658,ANT,2020.1.3,Win32,60,,,,,e,1,,,,,,1.6,1.148545,,,,,,0,37,37,0,1
,,,,,,,,ANT_images/center.png,ANT_images/cong_r.png,-0.25,i,1.6,0.1,2.1,Kay Sullivan,2020-08-24_16h06.58.658,ANT,2020.1.3,Win32,60,,,,,,0,,,,,,0.1,,,,,,,0,38,38,21,1
,,,,,,,,ANT_images/double.png,ANT_images/incong_l.png,0.25,e,1,0.1,1.5,Kay Sullivan,2020-08-24_16h06.58.658,ANT,2020.1.3,Win32,60,,,,,,0,,,,,,0.7,,,,,,,0,39,39,28,1
,,,,,,,,ANT_images/down.png,ANT_images/neu_l.png,-0.25,e,0.8,0.1,1.3,Kay Sullivan,2020-08-24_16h06.58.658,ANT,2020.1.3,Win32,60,,,,,,0,,,,,,0.9,,,,,,,0,40,40,42,1
,,,,,,,,ANT_images/none.png,ANT_images/incong_l.png,0.25,e,0.1,0,0.5,Kay Sullivan,2020-08-24_16h06.58.658,ANT,2020.1.3,Win32,60,,,,,e,1,,,,,,1.6,1.270635,,,,,,0,41,41,4,1
,,,,,,,,ANT_images/double.png,ANT_images/cong_l.png,0.25,e,0.6,0.1,1.1,Kay Sullivan,2020-08-24_16h06.58.658,ANT,2020.1.3,Win32,60,,,,,,0,,,,,,1.1,,,,,,,0,42,42,26,1
,,,,,,,,ANT_images/double.png,ANT_images/incong_r.png,0.25,i,0.9,0.1,1.4,Kay Sullivan,2020-08-24_16h06.58.658,ANT,2020.1.3,Win32,60,,,,,,0,,,,,,0.8,,,,,,,0,43,43,29,1
,,,,,,,,ANT_images/center.png,ANT_images/neu_l.png,-0.25,e,0.8,0.1,1.3,Kay Sullivan,2020-08-24_16h06.58.658,ANT,2020.1.3,Win32,60,,,,,,0,,,,,,0.9,,,,,,,0,44,44,18,1
,,,,,,,,ANT_images/double.png,ANT_images/incong_r.png,-0.25,i,1.6,0.1,2.1,Kay Sullivan,2020-08-24_16h06.58.658,ANT,2020.1.3,Win32,60,,,,,,0,,,,,,0.1,,,,,,,0,45,45,35,1
,,,,,,,,ANT_images/double.png,ANT_images/cong_r.png,-0.25,i,1.1,0.1,1.6,Kay Sullivan,2020-08-24_16h06.58.658,ANT,2020.1.3,Win32,60,,,,,,0,,,,,,0.6,,,,,,,0,46,46,33,1
,,,,,,,,ANT_images/up.png,ANT_images/neu_l.png,0.25,e,1.4,0.1,1.9,Kay Sullivan,2020-08-24_16h06.58.658,ANT,2020.1.3,Win32,60,,,,,,0,,,,,,0.3,,,,,,,0,47,47,36,1
,,,,,,,,ANT_images/center.png,ANT_images/neu_l.png,0.25,e,1.1,0.1,1.6,Kay Sullivan,2020-08-24_16h06.58.658,ANT,2020.1.3,Win32,60,,,,,,0,,,,,,0.6,,,,,,,1,0,48,12,1
,,,,,,,,ANT_images/none.png,ANT_images/neu_r.png,0.25,i,0.1,0,0.5,Kay Sullivan,2020-08-24_16h06.58.658,ANT,2020.1.3,Win32,60,,,,,i,1,,,,,,1.6,1.08796,,,,,,1,1,49,1,1
,,,,,,,,ANT_images/center.png,ANT_images/cong_l.png,-0.25,e,1.5,0.1,2,Kay Sullivan,2020-08-24_16h06.58.658,ANT,2020.1.3,Win32,60,,,,,,0,,,,,,0.2,,,,,,,1,2,50,20,1
,,,,,,,,ANT_images/double.png,ANT_images/cong_r.png,-0.25,i,1.1,0.1,1.6,Kay Sullivan,2020-08-24_16h06.58.658,ANT,2020.1.3,Win32,60,,,,,,0,,,,,,0.6,,,,,,,1,3,51,33,1
,,,,,,,,ANT_images/up.png,ANT_images/neu_l.png,0.25,e,1.4,0.1,1.9,Kay Sullivan,2020-08-24_16h06.58.658,ANT,2020.1.3,Win32,60,,,,,,0,,,,,,0.3,,,,,,,1,4,52,36,1
,,,,,,,,ANT_images/down.png,ANT_images/cong_r.png,-0.25,i,0.4,0.1,0.9,Kay Sullivan,2020-08-24_16h06.58.658,ANT,2020.1.3,Win32,60,,,,,i,1,,,,,,1.3,1.358025,,,,,,1,5,53,45,1
,,,,,,,,ANT_images/double.png,ANT_images/neu_r.png,0.25,i,1.2,0.1,1.7,Kay Sullivan,2020-08-24_16h06.58.658,ANT,2020.1.3,Win32,60,,,,,,0,,,,,,0.5,,,,,,,1,6,54,25,1
,,,,,,,,ANT_images/up.png,ANT_images/neu_r.png,0.25,i,0.8,0.1,1.3,Kay Sullivan,2020-08-24_16h06.58.658,ANT,2020.1.3,Win32,60,,,,,,0,,,,,,0.9,,,,,,,1,7,55,37,1
,,,,,,,,ANT_images/up.png,ANT_images/incong_r.png,0.25,i,0.9,0.1,1.4,Kay Sullivan,2020-08-24_16h06.58.658,ANT,2020.1.3,Win32,60,,,,,,0,,,,,,0.8,,,,,,,1,8,56,41,1
,,,,,,,,ANT_images/none.png,ANT_images/cong_l.png,0.25,e,0.1,0,0.5,Kay Sullivan,2020-08-24_16h06.58.658,ANT,2020.1.3,Win32,60,,,,,e,1,,,,,,1.6,1.091165,,,,,,1,9,57,2,1
,,,,,,,,ANT_images/none.png,ANT_images/cong_r.png,-0.25,i,0.1,0,0.5,Kay Sullivan,2020-08-24_16h06.58.658,ANT,2020.1.3,Win32,60,,,,,i,1,,,,,,1.6,1.357135,,,,,,1,10,58,9,1
,,,,,,,,ANT_images/none.png,ANT_images/cong_l.png,-0.25,e,0.1,0,0.5,Kay Sullivan,2020-08-24_16h06.58.658,ANT,2020.1.3,Win32,60,,,,,e,1,,,,,,1.6,1.22669,,,,,,1,11,59,8,1
,,,,,,,,ANT_images/none.png,ANT_images/incong_r.png,-0.25,i,0.1,0,0.5,Kay Sullivan,2020-08-24_16h06.58.658,ANT,2020.1.3,Win32,60,,,,,i,1,,,,,,1.6,1.190365,,,,,,1,12,60,11,1
,,,,,,,,ANT_images/down.png,ANT_images/cong_l.png,-0.25,e,1.2,0.1,1.7,Kay Sullivan,2020-08-24_16h06.58.658,ANT,2020.1.3,Win32,60,,,,,,0,,,,,,0.5,,,,,,,1,13,61,44,1
,,,,,,,,ANT_images/double.png,ANT_images/cong_l.png,0.25,e,0.6,0.1,1.1,Kay Sullivan,2020-08-24_16h06.58.658,ANT,2020.1.3,Win32,60,,,,,,0,,,,,,1.1,,,,,,,1,14,62,26,1
,,,,,,,,ANT_images/none.png,ANT_images/cong_r.png,0.25,i,0.1,0,0.5,Kay Sullivan,2020-08-24_16h06.58.658,ANT,2020.1.3,Win32,60,,,,,i,1,,,,,,1.6,1.04955,,,,,,1,15,63,3,1
,,,,,,,,ANT_images/none.png,ANT_images/neu_r.png,-0.25,i,0.1,0,0.5,Kay Sullivan,2020-08-24_16h06.58.658,ANT,2020.1.3,Win32,60,,,,,i,1,,,,,,1.6,1.164485,,,,,,1,16,64,7,1
,,,,,,,,ANT_images/none.png,ANT_images/incong_r.png,0.25,i,0.1,0,0.5,Kay Sullivan,2020-08-24_16h06.58.658,ANT,2020.1.3,Win32,60,,,,,i,1,,,,,,1.6,1.066385,,,,,,1,17,65,5,1
,,,,,,,,ANT_images/up.png,ANT_images/cong_l.png,0.25,e,1.5,0.1,2,Kay Sullivan,2020-08-24_16h06.58.658,ANT,2020.1.3,Win32,60,,,,,,0,,,,,,0.2,,,,,,,1,18,66,38,1
,,,,,,,,ANT_images/none.png,ANT_images/incong_l.png,-0.25,e,0.1,0,0.5,Kay Sullivan,2020-08-24_16h06.58.658,ANT,2020.1.3,Win32,60,,,,,e,1,,,,,,1.6,1.58258,,,,,,1,19,67,10,1
,,,,,,,,ANT_images/double.png,ANT_images/incong_l.png,0.25,e,1,0.1,1.5,Kay Sullivan,2020-08-24_16h06.58.658,ANT,2020.1.3,Win32,60,,,,,,0,,,,,,0.7,,,,,,,1,20,68,28,1
,,,,,,,,ANT_images/up.png,ANT_images/incong_l.png,0.25,e,0.5,0.1,1,Kay Sullivan,2020-08-24_16h06.58.658,ANT,2020.1.3,Win32,60,,,,,e,1,,,,,,1.2,1.58114,,,,,,1,21,69,40,1
,,,,,,,,ANT_images/double.png,ANT_images/neu_l.png,0.25,e,0.6,0.1,1.1,Kay Sullivan,2020-08-24_16h06.58.658,ANT,2020.1.3,Win32,60,,,,,,0,,,,,,1.1,,,,,,,1,22,70,24,1
,,,,,,,,ANT_images/center.png,ANT_images/neu_r.png,0.25,i,1,0.1,1.5,Kay Sullivan,2020-08-24_16h06.58.658,ANT,2020.1.3,Win32,60,,,,,,0,,,,,,0.7,,,,,,,1,23,71,13,1
,,,,,,,,ANT_images/center.png,ANT_images/incong_r.png,0.25,i,0.4,0.1,0.9,Kay Sullivan,2020-08-24_16h06.58.658,ANT,2020.1.3,Win32,60,,,,,i,1,,,,,,1.3,1.43771,,,,,,1,24,72,17,1
,,,,,,,,ANT_images/double.png,ANT_images/incong_r.png,-0.25,i,1.6,0.1,2.1,Kay Sullivan,2020-08-24_16h06.58.658,ANT,2020.1.3,Win32,60,,,,,,0,,,,,,0.1,,,,,,,1,25,73,35,1
,,,,,,,,ANT_images/down.png,ANT_images/incong_l.png,-0.25,e,1.3,0.1,1.8,Kay Sullivan,2020-08-24_16h06.58.658,ANT,2020.1.3,Win32,60,,,,,,0,,,,,,0.4,,,,,,,1,26,74,46,1
,,,,,,,,ANT_images/center.png,ANT_images/incong_l.png,-0.25,e,1.3,0.1,1.8,Kay Sullivan,2020-08-24_16h06.58.658,ANT,2020.1.3,Win32,60,,,,,,0,,,,,,0.4,,,,,,,1,27,75,22,1
,,,,,,,,ANT_images/double.png,ANT_images/incong_l.png,-0.25,e,1.5,0.1,2,Kay Sullivan,2020-08-24_16h06.58.658,ANT,2020.1.3,Win32,60,,,,,,0,,,,,,0.2,,,,,,,1,28,76,34,1
,,,,,,,,ANT_images/center.png,ANT_images/cong_r.png,-0.25,i,1.6,0.1,2.1,Kay Sullivan,2020-08-24_16h06.58.658,ANT,2020.1.3,Win32,60,,,,,,0,,,,,,0.1,,,,,,,1,29,77,21,1
,,,,,,,,ANT_images/center.png,ANT_images/incong_l.png,0.25,e,0.5,0.1,1,Kay Sullivan,2020-08-24_16h06.58.658,ANT,2020.1.3,Win32,60,,,,,,0,,,,,,1.2,,,,,,,1,30,78,16,1
,,,,,,,,ANT_images/down.png,ANT_images/neu_l.png,-0.25,e,0.8,0.1,1.3,Kay Sullivan,2020-08-24_16h06.58.658,ANT,2020.1.3,Win32,60,,,,,,0,,,,,,0.9,,,,,,,1,31,79,42,1
,,,,,,,,ANT_images/center.png,ANT_images/neu_l.png,-0.25,e,0.8,0.1,1.3,Kay Sullivan,2020-08-24_16h06.58.658,ANT,2020.1.3,Win32,60,,,,,,0,,,,,,0.9,,,,,,,1,32,80,18,1
,,,,,,,,ANT_images/none.png,ANT_images/neu_l.png,-0.25,e,0.1,0,0.5,Kay Sullivan,2020-08-24_16h06.58.658,ANT,2020.1.3,Win32,60,,,,,e,1,,,,,,1.6,1.13004,,,,,,1,33,81,6,1
,,,,,,,,ANT_images/double.png,ANT_images/neu_l.png,-0.25,e,0.5,0.1,1,Kay Sullivan,2020-08-24_16h06.58.658,ANT,2020.1.3,Win32,60,,,,,e,1,,,,,,1.2,1.58397,,,,,,1,34,82,30,1
,,,,,,,,ANT_images/center.png,ANT_images/incong_r.png,-0.25,i,0.9,0.1,1.4,Kay Sullivan,2020-08-24_16h06.58.658,ANT,2020.1.3,Win32,60,,,,,,0,,,,,,0.8,,,,,,,1,35,83,23,1
,,,,,,,,ANT_images/center.png,ANT_images/cong_r.png,0.25,i,1.4,0.1,1.9,Kay Sullivan,2020-08-24_16h06.58.658,ANT,2020.1.3,Win32,60,,,,,,0,,,,,,0.3,,,,,,,1,36,84,15,1
,,,,,,,,ANT_images/up.png,ANT_images/cong_r.png,0.25,i,1.4,0.1,1.9,Kay Sullivan,2020-08-24_16h06.58.658,ANT,2020.1.3,Win32,60,,,,,,0,,,,,,0.3,,,,,,,1,37,85,39,1
,,,,,,,,ANT_images/down.png,ANT_images/incong_r.png,-0.25,i,1,0.1,1.5,Kay Sullivan,2020-08-24_16h06.58.658,ANT,2020.1.3,Win32,60,,,,,,0,,,,,,0.7,,,,,,,1,38,86,47,1
,,,,,,,,ANT_images/down.png,ANT_images/neu_r.png,-0.25,i,0.6,0.1,1.1,Kay Sullivan,2020-08-24_16h06.58.658,ANT,2020.1.3,Win32,60,,,,,i,1,,,,,,1.1,1.53989,,,,,,1,39,87,43,1
,,,,,,,,ANT_images/double.png,ANT_images/neu_r.png,-0.25,i,0.7,0.1,1.2,Kay Sullivan,2020-08-24_16h06.58.658,ANT,2020.1.3,Win32,60,,,,,i,1,,,,,,1,1.631275,,,,,,1,40,88,31,1
,,,,,,,,ANT_images/none.png,ANT_images/incong_l.png,0.25,e,0.1,0,0.5,Kay Sullivan,2020-08-24_16h06.58.658,ANT,2020.1.3,Win32,60,,,,,e,1,,,,,,1.6,1.21321,,,,,,1,41,89,4,1
,,,,,,,,ANT_images/double.png,ANT_images/incong_r.png,0.25,i,0.9,0.1,1.4,Kay Sullivan,2020-08-24_16h06.58.658,ANT,2020.1.3,Win32,60,,,,,,0,,,,,,0.8,,,,,,,1,42,90,29,1
,,,,,,,,ANT_images/center.png,ANT_images/cong_l.png,0.25,e,1.2,0.1,1.7,Kay Sullivan,2020-08-24_16h06.58.658,ANT,2020.1.3,Win32,60,,,,,,0,,,,,,0.5,,,,,,,1,43,91,14,1
,,,,,,,,ANT_images/none.png,ANT_images/neu_l.png,0.25,e,0.1,0,0.5,Kay Sullivan,2020-08-24_16h06.58.658,ANT,2020.1.3,Win32,60,,,,,e,1,,,,,,1.6,1.01344,,,,,,1,44,92,0,1
,,,,,,,,ANT_images/double.png,ANT_images/cong_l.png,-0.25,e,0.4,0.1,0.9,Kay Sullivan,2020-08-24_16h06.58.658,ANT,2020.1.3,Win32,60,,,,,e,1,,,,,,1.3,1.58199,,,,,,1,45,93,32,1
,,,,,,,,ANT_images/center.png,ANT_images/neu_r.png,-0.25,i,0.7,0.1,1.2,Kay Sullivan,2020-08-24_16h06.58.658,ANT,2020.1.3,Win32,60,,,,,,0,,,,,,1,,,,,,,1,46,94,19,1
,,,,,,,,ANT_images/double.png,ANT_images/cong_r.png,0.25,i,1.3,0.1,1.8,Kay Sullivan,2020-08-24_16h06.58.658,ANT,2020.1.3,Win32,60,,,,,,0,,,,,,0.4,,,,,,,1,47,95,27,1
