pract_resp.keys,pract_resp.corr,practice.thisRepN,practice.thisTrialN,practice.thisN,practice.thisIndex,practice.ran,cue_file,flanker,pos,correct,fix1,cue_time,stimStart,participant,date,expName,psychopyVersion,OS,frameRate,pract_resp.rt,key_resp_6.keys,key_resp_6.rt,key_resp_7.keys,key_resp_7.rt,response.keys,response.corr,trials.thisRepN,trials.thisTrialN,trials.thisN,trials.thisIndex,trials.ran,postFix,response.rt,trials_2.thisRepN,trials_2.thisTrialN,trials_2.thisN,trials_2.thisIndex,trials_2.ran,trials_3.thisRepN,trials_3.thisTrialN,trials_3.thisN,trials_3.thisIndex,trials_3.ran
,0,0,0,0,6,1,ANT_images/center.png,ANT_images/neu_r.png,0.25,i,1,0.1,1.5,level,2020-09-30_15h36.40.377,ANT,2020.1.3,Win32,60,,,,,,,,,,,,,,,,,,,,,,,,
,0,0,1,1,7,1,ANT_images/center.png,ANT_images/neu_l.png,0.25,e,1.1,0.1,1.6,level,2020-09-30_15h36.40.377,ANT,2020.1.3,Win32,60,,,,,,,,,,,,,,,,,,,,,,,,
,0,0,2,2,10,1,ANT_images/double.png,ANT_images/neu_r.png,-0.25,i,0.7,0.1,1.2,level,2020-09-30_15h36.40.377,ANT,2020.1.3,Win32,60,,,,,,,,,,,,,,,,,,,,,,,,
,0,0,3,3,18,1,ANT_images/down.png,ANT_images/cong_l.png,-0.25,e,1.2,0.1,1.7,level,2020-09-30_15h36.40.377,ANT,2020.1.3,Win32,60,,,,,,,,,,,,,,,,,,,,,,,,
,0,0,4,4,11,1,ANT_images/double.png,ANT_images/incong_r.png,-0.25,i,1.6,0.1,2.1,level,2020-09-30_15h36.40.377,ANT,2020.1.3,Win32,60,,,,,,,,,,,,,,,,,,,,,,,,
,0,0,5,5,14,1,ANT_images/double.png,ANT_images/neu_r.png,0.25,i,1.2,0.1,1.7,level,2020-09-30_15h36.40.377,ANT,2020.1.3,Win32,60,,,,,,,,,,,,,,,,,,,,,,,,
,0,0,6,6,15,1,ANT_images/up.png,ANT_images/cong_l.png,0.25,e,1.5,0.1,2,level,2020-09-30_15h36.40.377,ANT,2020.1.3,Win32,60,,,,,,,,,,,,,,,,,,,,,,,,
,0,0,7,7,21,1,ANT_images/none.png,ANT_images/neu_r.png,0.25,i,0.1,0,0.5,level,2020-09-30_15h36.40.377,ANT,2020.1.3,Win32,60,,,,,,,,,,,,,,,,,,,,,,,,
,0,0,8,8,5,1,ANT_images/center.png,ANT_images/neu_l.png,-0.25,e,0.8,0.1,1.3,level,2020-09-30_15h36.40.377,ANT,2020.1.3,Win32,60,,,,,,,,,,,,,,,,,,,,,,,,
,0,0,9,9,2,1,ANT_images/none.png,ANT_images/cong_l.png,0.25,e,0.1,0,0.5,level,2020-09-30_15h36.40.377,ANT,2020.1.3,Win32,60,,,,,,,,,,,,,,,,,,,,,,,,
,0,0,10,10,20,1,ANT_images/down.png,ANT_images/incong_r.png,-0.25,i,1,0.1,1.5,level,2020-09-30_15h36.40.377,ANT,2020.1.3,Win32,60,,,,,,,,,,,,,,,,,,,,,,,,
,0,0,11,11,16,1,ANT_images/up.png,ANT_images/neu_l.png,0.25,e,1.4,0.1,1.9,level,2020-09-30_15h36.40.377,ANT,2020.1.3,Win32,60,,,,,,,,,,,,,,,,,,,,,,,,
,0,0,12,12,0,1,ANT_images/none.png,ANT_images/cong_l.png,-0.25,e,0.1,0,0.5,level,2020-09-30_15h36.40.377,ANT,2020.1.3,Win32,60,,,,,,,,,,,,,,,,,,,,,,,,
,0,0,13,13,9,1,ANT_images/center.png,ANT_images/neu_r.png,0.25,i,1,0.1,1.5,level,2020-09-30_15h36.40.377,ANT,2020.1.3,Win32,60,,,,,,,,,,,,,,,,,,,,,,,,
,0,0,14,14,17,1,ANT_images/up.png,ANT_images/incong_r.png,0.25,i,0.9,0.1,1.4,level,2020-09-30_15h36.40.377,ANT,2020.1.3,Win32,60,,,,,,,,,,,,,,,,,,,,,,,,
,0,0,15,15,3,1,ANT_images/none.png,ANT_images/cong_r.png,-0.25,i,0.1,0,0.5,level,2020-09-30_15h36.40.377,ANT,2020.1.3,Win32,60,,,,,,,,,,,,,,,,,,,,,,,,
,0,0,16,16,23,1,ANT_images/center.png,ANT_images/incong_r.png,0.25,i,0.4,0.1,0.9,level,2020-09-30_15h36.40.377,ANT,2020.1.3,Win32,60,,,,,,,,,,,,,,,,,,,,,,,,
,0,0,17,17,8,1,ANT_images/center.png,ANT_images/cong_r.png,0.25,i,1.4,0.1,1.9,level,2020-09-30_15h36.40.377,ANT,2020.1.3,Win32,60,,,,,,,,,,,,,,,,,,,,,,,,
,0,0,18,18,22,1,ANT_images/center.png,ANT_images/incong_l.png,-0.25,e,1.3,0.1,1.8,level,2020-09-30_15h36.40.377,ANT,2020.1.3,Win32,60,,,,,,,,,,,,,,,,,,,,,,,,
i,1,0,19,19,4,1,ANT_images/none.png,ANT_images/cong_r.png,0.25,i,0.1,0,0.5,level,2020-09-30_15h36.40.377,ANT,2020.1.3,Win32,60,1.08312,,,,,,,,,,,,,,,,,,,,,,,
i,1,0,20,20,13,1,ANT_images/double.png,ANT_images/cong_r.png,0.25,i,1.3,0.1,1.8,level,2020-09-30_15h36.40.377,ANT,2020.1.3,Win32,60,0.86597,,,,,,,,,,,,,,,,,,,,,,,
e,1,0,21,21,19,1,ANT_images/down.png,ANT_images/incong_l.png,-0.25,e,1.3,0.1,1.8,level,2020-09-30_15h36.40.377,ANT,2020.1.3,Win32,60,1.52459,,,,,,,,,,,,,,,,,,,,,,,
,0,0,22,22,1,1,ANT_images/none.png,ANT_images/incong_r.png,0.25,i,0.1,0,0.5,level,2020-09-30_15h36.40.377,ANT,2020.1.3,Win32,60,,,,,,,,,,,,,,,,,,,,,,,,
i,0,0,23,23,12,1,ANT_images/double.png,ANT_images/incong_l.png,-0.25,e,1.5,0.1,2,level,2020-09-30_15h36.40.377,ANT,2020.1.3,Win32,60,1.032775,,,,,,,,,,,,,,,,,,,,,,,
,,,,,,,ANT_images/double.png,ANT_images/neu_r.png,-0.25,i,0.7,0.1,1.2,level,2020-09-30_15h36.40.377,ANT,2020.1.3,Win32,60,,space,4.41487,space,7.449355,,0,0,0,0,31,1,1,,,,,,,,,,,
,,,,,,,ANT_images/center.png,ANT_images/neu_l.png,-0.25,e,0.8,0.1,1.3,level,2020-09-30_15h36.40.377,ANT,2020.1.3,Win32,60,,,,,,,0,0,1,1,18,1,0.9,,,,,,,,,,,
,,,,,,,ANT_images/none.png,ANT_images/incong_r.png,-0.25,i,0.1,0,0.5,level,2020-09-30_15h36.40.377,ANT,2020.1.3,Win32,60,,,,,,,0,0,2,2,11,1,1.6,,,,,,,,,,,
,,,,,,,ANT_images/none.png,ANT_images/cong_r.png,0.25,i,0.1,0,0.5,level,2020-09-30_15h36.40.377,ANT,2020.1.3,Win32,60,,,,,,i,1,0,3,3,3,1,1.6,1.507225,,,,,,,,,,
,,,,,,,ANT_images/double.png,ANT_images/incong_r.png,-0.25,i,1.6,0.1,2.1,level,2020-09-30_15h36.40.377,ANT,2020.1.3,Win32,60,,,,,,,0,0,4,4,35,1,0.1,,,,,,,,,,,
,,,,,,,ANT_images/double.png,ANT_images/neu_l.png,-0.25,e,0.5,0.1,1,level,2020-09-30_15h36.40.377,ANT,2020.1.3,Win32,60,,,,,,,0,0,5,5,30,1,1.2,,,,,,,,,,,
,,,,,,,ANT_images/double.png,ANT_images/cong_l.png,-0.25,e,0.4,0.1,0.9,level,2020-09-30_15h36.40.377,ANT,2020.1.3,Win32,60,,,,,,,0,0,6,6,32,1,1.3,,,,,,,,,,,
,,,,,,,ANT_images/center.png,ANT_images/cong_r.png,-0.25,i,1.6,0.1,2.1,level,2020-09-30_15h36.40.377,ANT,2020.1.3,Win32,60,,,,,,,0,0,7,7,21,1,0.1,,,,,,,,,,,
,,,,,,,ANT_images/none.png,ANT_images/incong_l.png,-0.25,e,0.1,0,0.5,level,2020-09-30_15h36.40.377,ANT,2020.1.3,Win32,60,,,,,,,0,0,8,8,10,1,1.6,,,,,,,,,,,
,,,,,,,ANT_images/down.png,ANT_images/neu_l.png,-0.25,e,0.8,0.1,1.3,level,2020-09-30_15h36.40.377,ANT,2020.1.3,Win32,60,,,,,,,0,0,9,9,42,1,0.9,,,,,,,,,,,
,,,,,,,ANT_images/center.png,ANT_images/incong_l.png,-0.25,e,1.3,0.1,1.8,level,2020-09-30_15h36.40.377,ANT,2020.1.3,Win32,60,,,,,,e,1,0,10,10,22,1,0.4,0.001025,,,,,,,,,,
,,,,,,,ANT_images/double.png,ANT_images/neu_r.png,0.25,i,1.2,0.1,1.7,level,2020-09-30_15h36.40.377,ANT,2020.1.3,Win32,60,,,,,,,0,0,11,11,25,1,0.5,,,,,,,,,,,
,,,,,,,ANT_images/double.png,ANT_images/cong_r.png,0.25,i,1.3,0.1,1.8,level,2020-09-30_15h36.40.377,ANT,2020.1.3,Win32,60,,,,,,,0,0,12,12,27,1,0.4,,,,,,,,,,,
,,,,,,,ANT_images/down.png,ANT_images/incong_l.png,-0.25,e,1.3,0.1,1.8,level,2020-09-30_15h36.40.377,ANT,2020.1.3,Win32,60,,,,,,,0,0,13,13,46,1,0.4,,,,,,,,,,,
,,,,,,,ANT_images/none.png,ANT_images/neu_r.png,-0.25,i,0.1,0,0.5,level,2020-09-30_15h36.40.377,ANT,2020.1.3,Win32,60,,,,,,i,1,0,14,14,7,1,1.6,1.239975,,,,,,,,,,
,,,,,,,ANT_images/center.png,ANT_images/incong_l.png,0.25,e,0.5,0.1,1,level,2020-09-30_15h36.40.377,ANT,2020.1.3,Win32,60,,,,,,,0,0,15,15,16,1,1.2,,,,,,,,,,,
,,,,,,,ANT_images/up.png,ANT_images/cong_r.png,0.25,i,1.4,0.1,1.9,level,2020-09-30_15h36.40.377,ANT,2020.1.3,Win32,60,,,,,,,0,0,16,16,39,1,0.3,,,,,,,,,,,
,,,,,,,ANT_images/down.png,ANT_images/neu_r.png,-0.25,i,0.6,0.1,1.1,level,2020-09-30_15h36.40.377,ANT,2020.1.3,Win32,60,,,,,,,0,0,17,17,43,1,1.1,,,,,,,,,,,
,,,,,,,ANT_images/double.png,ANT_images/incong_l.png,-0.25,e,1.5,0.1,2,level,2020-09-30_15h36.40.377,ANT,2020.1.3,Win32,60,,,,,,,0,0,18,18,34,1,0.2,,,,,,,,,,,
,,,,,,,ANT_images/down.png,ANT_images/cong_r.png,-0.25,i,0.4,0.1,0.9,level,2020-09-30_15h36.40.377,ANT,2020.1.3,Win32,60,,,,,,i,1,0,19,19,45,1,1.3,1.4294,,,,,,,,,,
,,,,,,,ANT_images/center.png,ANT_images/cong_r.png,0.25,i,1.4,0.1,1.9,level,2020-09-30_15h36.40.377,ANT,2020.1.3,Win32,60,,,,,,,0,0,20,20,15,1,0.3,,,,,,,,,,,
,,,,,,,ANT_images/center.png,ANT_images/cong_l.png,0.25,e,1.2,0.1,1.7,level,2020-09-30_15h36.40.377,ANT,2020.1.3,Win32,60,,,,,,,0,0,21,21,14,1,0.5,,,,,,,,,,,
,,,,,,,ANT_images/none.png,ANT_images/cong_r.png,-0.25,i,0.1,0,0.5,level,2020-09-30_15h36.40.377,ANT,2020.1.3,Win32,60,,,,,,i,1,0,22,22,9,1,1.6,1.113815,,,,,,,,,,
,,,,,,,ANT_images/center.png,ANT_images/cong_l.png,-0.25,e,1.5,0.1,2,level,2020-09-30_15h36.40.377,ANT,2020.1.3,Win32,60,,,,,,,0,0,23,23,20,1,0.2,,,,,,,,,,,
,,,,,,,ANT_images/up.png,ANT_images/neu_l.png,0.25,e,1.4,0.1,1.9,level,2020-09-30_15h36.40.377,ANT,2020.1.3,Win32,60,,,,,,,0,0,24,24,36,1,0.3,,,,,,,,,,,
,,,,,,,ANT_images/center.png,ANT_images/neu_r.png,-0.25,i,0.7,0.1,1.2,level,2020-09-30_15h36.40.377,ANT,2020.1.3,Win32,60,,,,,,,0,0,25,25,19,1,1,,,,,,,,,,,
,,,,,,,ANT_images/up.png,ANT_images/neu_r.png,0.25,i,0.8,0.1,1.3,level,2020-09-30_15h36.40.377,ANT,2020.1.3,Win32,60,,,,,,,0,0,26,26,37,1,0.9,,,,,,,,,,,
,,,,,,,ANT_images/center.png,ANT_images/incong_r.png,-0.25,i,0.9,0.1,1.4,level,2020-09-30_15h36.40.377,ANT,2020.1.3,Win32,60,,,,,,,0,0,27,27,23,1,0.8,,,,,,,,,,,
,,,,,,,ANT_images/center.png,ANT_images/neu_r.png,0.25,i,1,0.1,1.5,level,2020-09-30_15h36.40.377,ANT,2020.1.3,Win32,60,,,,,,,0,0,28,28,13,1,0.7,,,,,,,,,,,
,,,,,,,ANT_images/double.png,ANT_images/cong_r.png,-0.25,i,1.1,0.1,1.6,level,2020-09-30_15h36.40.377,ANT,2020.1.3,Win32,60,,,,,,,0,0,29,29,33,1,0.6,,,,,,,,,,,
,,,,,,,ANT_images/double.png,ANT_images/cong_l.png,0.25,e,0.6,0.1,1.1,level,2020-09-30_15h36.40.377,ANT,2020.1.3,Win32,60,,,,,,,0,0,30,30,26,1,1.1,,,,,,,,,,,
,,,,,,,ANT_images/none.png,ANT_images/neu_r.png,0.25,i,0.1,0,0.5,level,2020-09-30_15h36.40.377,ANT,2020.1.3,Win32,60,,,,,,i,1,0,31,31,1,1,1.6,1.07676,,,,,,,,,,
,,,,,,,ANT_images/none.png,ANT_images/incong_r.png,0.25,i,0.1,0,0.5,level,2020-09-30_15h36.40.377,ANT,2020.1.3,Win32,60,,,,,,i,1,0,32,32,5,1,1.6,1.44091,,,,,,,,,,
,,,,,,,ANT_images/center.png,ANT_images/neu_l.png,0.25,e,1.1,0.1,1.6,level,2020-09-30_15h36.40.377,ANT,2020.1.3,Win32,60,,,,,,,0,0,33,33,12,1,0.6,,,,,,,,,,,
,,,,,,,ANT_images/double.png,ANT_images/incong_r.png,0.25,i,0.9,0.1,1.4,level,2020-09-30_15h36.40.377,ANT,2020.1.3,Win32,60,,,,,,,0,0,34,34,29,1,0.8,,,,,,,,,,,
,,,,,,,ANT_images/up.png,ANT_images/cong_l.png,0.25,e,1.5,0.1,2,level,2020-09-30_15h36.40.377,ANT,2020.1.3,Win32,60,,,,,,,0,0,35,35,38,1,0.2,,,,,,,,,,,
,,,,,,,ANT_images/double.png,ANT_images/incong_l.png,0.25,e,1,0.1,1.5,level,2020-09-30_15h36.40.377,ANT,2020.1.3,Win32,60,,,,,,,0,0,36,36,28,1,0.7,,,,,,,,,,,
,,,,,,,ANT_images/none.png,ANT_images/neu_l.png,-0.25,e,0.1,0,0.5,level,2020-09-30_15h36.40.377,ANT,2020.1.3,Win32,60,,,,,,e,1,0,37,37,6,1,1.6,1.3144,,,,,,,,,,
,,,,,,,ANT_images/up.png,ANT_images/incong_r.png,0.25,i,0.9,0.1,1.4,level,2020-09-30_15h36.40.377,ANT,2020.1.3,Win32,60,,,,,,,0,0,38,38,41,1,0.8,,,,,,,,,,,
,,,,,,,ANT_images/center.png,ANT_images/incong_r.png,0.25,i,0.4,0.1,0.9,level,2020-09-30_15h36.40.377,ANT,2020.1.3,Win32,60,,,,,,,0,0,39,39,17,1,1.3,,,,,,,,,,,
,,,,,,,ANT_images/none.png,ANT_images/neu_l.png,0.25,e,0.1,0,0.5,level,2020-09-30_15h36.40.377,ANT,2020.1.3,Win32,60,,,,,,e,1,0,40,40,0,1,1.6,1.043575,,,,,,,,,,
,,,,,,,ANT_images/down.png,ANT_images/incong_r.png,-0.25,i,1,0.1,1.5,level,2020-09-30_15h36.40.377,ANT,2020.1.3,Win32,60,,,,,,,0,0,41,41,47,1,0.7,,,,,,,,,,,
,,,,,,,ANT_images/down.png,ANT_images/cong_l.png,-0.25,e,1.2,0.1,1.7,level,2020-09-30_15h36.40.377,ANT,2020.1.3,Win32,60,,,,,,,0,0,42,42,44,1,0.5,,,,,,,,,,,
,,,,,,,ANT_images/up.png,ANT_images/incong_l.png,0.25,e,0.5,0.1,1,level,2020-09-30_15h36.40.377,ANT,2020.1.3,Win32,60,,,,,,,0,0,43,43,40,1,1.2,,,,,,,,,,,
,,,,,,,ANT_images/none.png,ANT_images/incong_l.png,0.25,e,0.1,0,0.5,level,2020-09-30_15h36.40.377,ANT,2020.1.3,Win32,60,,,,,,e,1,0,44,44,4,1,1.6,1.39674,,,,,,,,,,
,,,,,,,ANT_images/none.png,ANT_images/cong_l.png,-0.25,e,0.1,0,0.5,level,2020-09-30_15h36.40.377,ANT,2020.1.3,Win32,60,,,,,,e,1,0,45,45,8,1,1.6,1.430015,,,,,,,,,,
,,,,,,,ANT_images/double.png,ANT_images/neu_l.png,0.25,e,0.6,0.1,1.1,level,2020-09-30_15h36.40.377,ANT,2020.1.3,Win32,60,,,,,,,0,0,46,46,24,1,1.1,,,,,,,,,,,
,,,,,,,ANT_images/none.png,ANT_images/cong_l.png,0.25,e,0.1,0,0.5,level,2020-09-30_15h36.40.377,ANT,2020.1.3,Win32,60,,,,,,e,1,0,47,47,2,1,1.6,1.07692,,,,,,,,,,
,,,,,,,ANT_images/center.png,ANT_images/cong_r.png,-0.25,i,1.6,0.1,2.1,level,2020-09-30_15h36.40.377,ANT,2020.1.3,Win32,60,,,,,,,0,1,0,48,21,1,0.1,,,,,,,,,,,
,,,,,,,ANT_images/up.png,ANT_images/cong_r.png,0.25,i,1.4,0.1,1.9,level,2020-09-30_15h36.40.377,ANT,2020.1.3,Win32,60,,,,,,,0,1,1,49,39,1,0.3,,,,,,,,,,,
,,,,,,,ANT_images/none.png,ANT_images/neu_r.png,-0.25,i,0.1,0,0.5,level,2020-09-30_15h36.40.377,ANT,2020.1.3,Win32,60,,,,,,i,1,1,2,50,7,1,1.6,1.172975,,,,,,,,,,
,,,,,,,ANT_images/double.png,ANT_images/cong_r.png,-0.25,i,1.1,0.1,1.6,level,2020-09-30_15h36.40.377,ANT,2020.1.3,Win32,60,,,,,,,0,1,3,51,33,1,0.6,,,,,,,,,,,
,,,,,,,ANT_images/double.png,ANT_images/neu_l.png,0.25,e,0.6,0.1,1.1,level,2020-09-30_15h36.40.377,ANT,2020.1.3,Win32,60,,,,,,,0,1,4,52,24,1,1.1,,,,,,,,,,,
,,,,,,,ANT_images/down.png,ANT_images/cong_l.png,-0.25,e,1.2,0.1,1.7,level,2020-09-30_15h36.40.377,ANT,2020.1.3,Win32,60,,,,,,,0,1,5,53,44,1,0.5,,,,,,,,,,,
,,,,,,,ANT_images/none.png,ANT_images/incong_l.png,0.25,e,0.1,0,0.5,level,2020-09-30_15h36.40.377,ANT,2020.1.3,Win32,60,,,,,,,0,1,6,54,4,1,1.6,,,,,,,,,,,
,,,,,,,ANT_images/down.png,ANT_images/neu_l.png,-0.25,e,0.8,0.1,1.3,level,2020-09-30_15h36.40.377,ANT,2020.1.3,Win32,60,,,,,,,0,1,7,55,42,1,0.9,,,,,,,,,,,
,,,,,,,ANT_images/up.png,ANT_images/neu_l.png,0.25,e,1.4,0.1,1.9,level,2020-09-30_15h36.40.377,ANT,2020.1.3,Win32,60,,,,,,,0,1,8,56,36,1,0.3,,,,,,,,,,,
,,,,,,,ANT_images/none.png,ANT_images/neu_l.png,0.25,e,0.1,0,0.5,level,2020-09-30_15h36.40.377,ANT,2020.1.3,Win32,60,,,,,,e,1,1,9,57,0,1,1.6,1.077415,,,,,,,,,,
,,,,,,,ANT_images/center.png,ANT_images/incong_l.png,0.25,e,0.5,0.1,1,level,2020-09-30_15h36.40.377,ANT,2020.1.3,Win32,60,,,,,,,0,1,10,58,16,1,1.2,,,,,,,,,,,
,,,,,,,ANT_images/none.png,ANT_images/cong_l.png,-0.25,e,0.1,0,0.5,level,2020-09-30_15h36.40.377,ANT,2020.1.3,Win32,60,,,,,,e,1,1,11,59,8,1,1.6,1.14764,,,,,,,,,,
,,,,,,,ANT_images/center.png,ANT_images/incong_l.png,-0.25,e,1.3,0.1,1.8,level,2020-09-30_15h36.40.377,ANT,2020.1.3,Win32,60,,,,,,,0,1,12,60,22,1,0.4,,,,,,,,,,,
,,,,,,,ANT_images/none.png,ANT_images/incong_r.png,-0.25,i,0.1,0,0.5,level,2020-09-30_15h36.40.377,ANT,2020.1.3,Win32,60,,,,,,i,1,1,13,61,11,1,1.6,1.37326,,,,,,,,,,
,,,,,,,ANT_images/none.png,ANT_images/cong_l.png,0.25,e,0.1,0,0.5,level,2020-09-30_15h36.40.377,ANT,2020.1.3,Win32,60,,,,,,e,1,1,14,62,2,1,1.6,1.311435,,,,,,,,,,
,,,,,,,ANT_images/up.png,ANT_images/neu_r.png,0.25,i,0.8,0.1,1.3,level,2020-09-30_15h36.40.377,ANT,2020.1.3,Win32,60,,,,,,,0,1,15,63,37,1,0.9,,,,,,,,,,,
,,,,,,,ANT_images/double.png,ANT_images/neu_l.png,-0.25,e,0.5,0.1,1,level,2020-09-30_15h36.40.377,ANT,2020.1.3,Win32,60,,,,,,e,1,1,16,64,30,1,1.2,1.5849,,,,,,,,,,
,,,,,,,ANT_images/center.png,ANT_images/neu_l.png,-0.25,e,0.8,0.1,1.3,level,2020-09-30_15h36.40.377,ANT,2020.1.3,Win32,60,,,,,,,0,1,17,65,18,1,0.9,,,,,,,,,,,
,,,,,,,ANT_images/none.png,ANT_images/incong_l.png,-0.25,e,0.1,0,0.5,level,2020-09-30_15h36.40.377,ANT,2020.1.3,Win32,60,,,,,,e,1,1,18,66,10,1,1.6,1.37717,,,,,,,,,,
,,,,,,,ANT_images/center.png,ANT_images/cong_l.png,-0.25,e,1.5,0.1,2,level,2020-09-30_15h36.40.377,ANT,2020.1.3,Win32,60,,,,,,,0,1,19,67,20,1,0.2,,,,,,,,,,,
,,,,,,,ANT_images/up.png,ANT_images/incong_r.png,0.25,i,0.9,0.1,1.4,level,2020-09-30_15h36.40.377,ANT,2020.1.3,Win32,60,,,,,,,0,1,20,68,41,1,0.8,,,,,,,,,,,
,,,,,,,ANT_images/double.png,ANT_images/incong_r.png,-0.25,i,1.6,0.1,2.1,level,2020-09-30_15h36.40.377,ANT,2020.1.3,Win32,60,,,,,,,0,1,21,69,35,1,0.1,,,,,,,,,,,
,,,,,,,ANT_images/center.png,ANT_images/incong_r.png,-0.25,i,0.9,0.1,1.4,level,2020-09-30_15h36.40.377,ANT,2020.1.3,Win32,60,,,,,,,0,1,22,70,23,1,0.8,,,,,,,,,,,
,,,,,,,ANT_images/double.png,ANT_images/cong_l.png,0.25,e,0.6,0.1,1.1,level,2020-09-30_15h36.40.377,ANT,2020.1.3,Win32,60,,,,,,,0,1,23,71,26,1,1.1,,,,,,,,,,,
,,,,,,,ANT_images/center.png,ANT_images/neu_r.png,0.25,i,1,0.1,1.5,level,2020-09-30_15h36.40.377,ANT,2020.1.3,Win32,60,,,,,,,0,1,24,72,13,1,0.7,,,,,,,,,,,
,,,,,,,ANT_images/center.png,ANT_images/neu_r.png,-0.25,i,0.7,0.1,1.2,level,2020-09-30_15h36.40.377,ANT,2020.1.3,Win32,60,,,,,,,0,1,25,73,19,1,1,,,,,,,,,,,
,,,,,,,ANT_images/up.png,ANT_images/incong_l.png,0.25,e,0.5,0.1,1,level,2020-09-30_15h36.40.377,ANT,2020.1.3,Win32,60,,,,,,,0,1,26,74,40,1,1.2,,,,,,,,,,,
,,,,,,,ANT_images/up.png,ANT_images/cong_l.png,0.25,e,1.5,0.1,2,level,2020-09-30_15h36.40.377,ANT,2020.1.3,Win32,60,,,,,,,0,1,27,75,38,1,0.2,,,,,,,,,,,
,,,,,,,ANT_images/none.png,ANT_images/incong_r.png,0.25,i,0.1,0,0.5,level,2020-09-30_15h36.40.377,ANT,2020.1.3,Win32,60,,,,,,i,1,1,28,76,5,1,1.6,1.30937,,,,,,,,,,
,,,,,,,ANT_images/center.png,ANT_images/cong_r.png,0.25,i,1.4,0.1,1.9,level,2020-09-30_15h36.40.377,ANT,2020.1.3,Win32,60,,,,,,,0,1,29,77,15,1,0.3,,,,,,,,,,,
,,,,,,,ANT_images/none.png,ANT_images/cong_r.png,-0.25,i,0.1,0,0.5,level,2020-09-30_15h36.40.377,ANT,2020.1.3,Win32,60,,,,,,i,1,1,30,78,9,1,1.6,1.282295,,,,,,,,,,
,,,,,,,ANT_images/none.png,ANT_images/neu_l.png,-0.25,e,0.1,0,0.5,level,2020-09-30_15h36.40.377,ANT,2020.1.3,Win32,60,,,,,,e,1,1,31,79,6,1,1.6,1.08669,,,,,,,,,,
,,,,,,,ANT_images/double.png,ANT_images/incong_l.png,0.25,e,1,0.1,1.5,level,2020-09-30_15h36.40.377,ANT,2020.1.3,Win32,60,,,,,,,0,1,32,80,28,1,0.7,,,,,,,,,,,
,,,,,,,ANT_images/center.png,ANT_images/neu_l.png,0.25,e,1.1,0.1,1.6,level,2020-09-30_15h36.40.377,ANT,2020.1.3,Win32,60,,,,,,,0,1,33,81,12,1,0.6,,,,,,,,,,,
,,,,,,,ANT_images/double.png,ANT_images/incong_l.png,-0.25,e,1.5,0.1,2,level,2020-09-30_15h36.40.377,ANT,2020.1.3,Win32,60,,,,,,,0,1,34,82,34,1,0.2,,,,,,,,,,,
,,,,,,,ANT_images/double.png,ANT_images/cong_r.png,0.25,i,1.3,0.1,1.8,level,2020-09-30_15h36.40.377,ANT,2020.1.3,Win32,60,,,,,,,0,1,35,83,27,1,0.4,,,,,,,,,,,
,,,,,,,ANT_images/double.png,ANT_images/cong_l.png,-0.25,e,0.4,0.1,0.9,level,2020-09-30_15h36.40.377,ANT,2020.1.3,Win32,60,,,,,,e,1,1,36,84,32,1,1.3,1.547395,,,,,,,,,,
,,,,,,,ANT_images/down.png,ANT_images/incong_l.png,-0.25,e,1.3,0.1,1.8,level,2020-09-30_15h36.40.377,ANT,2020.1.3,Win32,60,,,,,,,0,1,37,85,46,1,0.4,,,,,,,,,,,
,,,,,,,ANT_images/center.png,ANT_images/incong_r.png,0.25,i,0.4,0.1,0.9,level,2020-09-30_15h36.40.377,ANT,2020.1.3,Win32,60,,,,,,,0,1,38,86,17,1,1.3,,,,,,,,,,,
,,,,,,,ANT_images/down.png,ANT_images/cong_r.png,-0.25,i,0.4,0.1,0.9,level,2020-09-30_15h36.40.377,ANT,2020.1.3,Win32,60,,,,,,,0,1,39,87,45,1,1.3,,,,,,,,,,,
,,,,,,,ANT_images/none.png,ANT_images/cong_r.png,0.25,i,0.1,0,0.5,level,2020-09-30_15h36.40.377,ANT,2020.1.3,Win32,60,,,,,,i,1,1,40,88,3,1,1.6,1.109065,,,,,,,,,,
,,,,,,,ANT_images/down.png,ANT_images/incong_r.png,-0.25,i,1,0.1,1.5,level,2020-09-30_15h36.40.377,ANT,2020.1.3,Win32,60,,,,,,,0,1,41,89,47,1,0.7,,,,,,,,,,,
,,,,,,,ANT_images/double.png,ANT_images/neu_r.png,0.25,i,1.2,0.1,1.7,level,2020-09-30_15h36.40.377,ANT,2020.1.3,Win32,60,,,,,,,0,1,42,90,25,1,0.5,,,,,,,,,,,
,,,,,,,ANT_images/center.png,ANT_images/cong_l.png,0.25,e,1.2,0.1,1.7,level,2020-09-30_15h36.40.377,ANT,2020.1.3,Win32,60,,,,,,,0,1,43,91,14,1,0.5,,,,,,,,,,,
,,,,,,,ANT_images/double.png,ANT_images/neu_r.png,-0.25,i,0.7,0.1,1.2,level,2020-09-30_15h36.40.377,ANT,2020.1.3,Win32,60,,,,,,,0,1,44,92,31,1,1,,,,,,,,,,,
,,,,,,,ANT_images/down.png,ANT_images/neu_r.png,-0.25,i,0.6,0.1,1.1,level,2020-09-30_15h36.40.377,ANT,2020.1.3,Win32,60,,,,,,,0,1,45,93,43,1,1.1,,,,,,,,,,,
,,,,,,,ANT_images/none.png,ANT_images/neu_r.png,0.25,i,0.1,0,0.5,level,2020-09-30_15h36.40.377,ANT,2020.1.3,Win32,60,,,,,,i,1,1,46,94,1,1,1.6,1.00667,,,,,,,,,,
,,,,,,,ANT_images/double.png,ANT_images/incong_r.png,0.25,i,0.9,0.1,1.4,level,2020-09-30_15h36.40.377,ANT,2020.1.3,Win32,60,,,,,,,0,1,47,95,29,1,0.8,,,,,,,,,,,
,,,,,,,,,,,,,,level,2020-09-30_15h36.40.377,ANT,2020.1.3,Win32,60,,,,,,,,,,,,,,,0,0,0,0,1,,,,,
,,,,,,,ANT_images/center.png,ANT_images/incong_l.png,-0.25,e,1.3,0.1,1.8,level,2020-09-30_15h36.40.377,ANT,2020.1.3,Win32,60,,,,,,,0,0,0,0,22,1,0.4,,,,,,,,,,,
,,,,,,,ANT_images/none.png,ANT_images/neu_l.png,0.25,e,0.1,0,0.5,level,2020-09-30_15h36.40.377,ANT,2020.1.3,Win32,60,,,,,,e,1,0,1,1,0,1,1.6,1.33648,,,,,,,,,,
,,,,,,,ANT_images/none.png,ANT_images/cong_l.png,0.25,e,0.1,0,0.5,level,2020-09-30_15h36.40.377,ANT,2020.1.3,Win32,60,,,,,,e,1,0,2,2,2,1,1.6,1.445505,,,,,,,,,,
,,,,,,,ANT_images/center.png,ANT_images/cong_l.png,-0.25,e,1.5,0.1,2,level,2020-09-30_15h36.40.377,ANT,2020.1.3,Win32,60,,,,,,,0,0,3,3,20,1,0.2,,,,,,,,,,,
,,,,,,,ANT_images/none.png,ANT_images/neu_l.png,-0.25,e,0.1,0,0.5,level,2020-09-30_15h36.40.377,ANT,2020.1.3,Win32,60,,,,,,e,1,0,4,4,6,1,1.6,1.227915,,,,,,,,,,
,,,,,,,ANT_images/up.png,ANT_images/cong_r.png,0.25,i,1.4,0.1,1.9,level,2020-09-30_15h36.40.377,ANT,2020.1.3,Win32,60,,,,,,,0,0,5,5,39,1,0.3,,,,,,,,,,,
,,,,,,,ANT_images/double.png,ANT_images/cong_r.png,0.25,i,1.3,0.1,1.8,level,2020-09-30_15h36.40.377,ANT,2020.1.3,Win32,60,,,,,,,0,0,6,6,27,1,0.4,,,,,,,,,,,
,,,,,,,ANT_images/double.png,ANT_images/neu_r.png,-0.25,i,0.7,0.1,1.2,level,2020-09-30_15h36.40.377,ANT,2020.1.3,Win32,60,,,,,,,0,0,7,7,31,1,1,,,,,,,,,,,
,,,,,,,ANT_images/none.png,ANT_images/incong_r.png,0.25,i,0.1,0,0.5,level,2020-09-30_15h36.40.377,ANT,2020.1.3,Win32,60,,,,,,i,1,0,8,8,5,1,1.6,1.22767,,,,,,,,,,
,,,,,,,ANT_images/none.png,ANT_images/incong_l.png,-0.25,e,0.1,0,0.5,level,2020-09-30_15h36.40.377,ANT,2020.1.3,Win32,60,,,,,,,0,0,9,9,10,1,1.6,,,,,,,,,,,
,,,,,,,ANT_images/none.png,ANT_images/neu_r.png,0.25,i,0.1,0,0.5,level,2020-09-30_15h36.40.377,ANT,2020.1.3,Win32,60,,,,,,i,1,0,10,10,1,1,1.6,1.470675,,,,,,,,,,
,,,,,,,ANT_images/double.png,ANT_images/incong_l.png,0.25,e,1,0.1,1.5,level,2020-09-30_15h36.40.377,ANT,2020.1.3,Win32,60,,,,,,,0,0,11,11,28,1,0.7,,,,,,,,,,,
,,,,,,,ANT_images/center.png,ANT_images/incong_l.png,0.25,e,0.5,0.1,1,level,2020-09-30_15h36.40.377,ANT,2020.1.3,Win32,60,,,,,,,0,0,12,12,16,1,1.2,,,,,,,,,,,
,,,,,,,ANT_images/none.png,ANT_images/incong_l.png,0.25,e,0.1,0,0.5,level,2020-09-30_15h36.40.377,ANT,2020.1.3,Win32,60,,,,,,e,1,0,13,13,4,1,1.6,1.414895,,,,,,,,,,
,,,,,,,ANT_images/double.png,ANT_images/neu_l.png,0.25,e,0.6,0.1,1.1,level,2020-09-30_15h36.40.377,ANT,2020.1.3,Win32,60,,,,,,,0,0,14,14,24,1,1.1,,,,,,,,,,,
,,,,,,,ANT_images/double.png,ANT_images/cong_l.png,-0.25,e,0.4,0.1,0.9,level,2020-09-30_15h36.40.377,ANT,2020.1.3,Win32,60,,,,,,,0,0,15,15,32,1,1.3,,,,,,,,,,,
,,,,,,,ANT_images/center.png,ANT_images/cong_l.png,0.25,e,1.2,0.1,1.7,level,2020-09-30_15h36.40.377,ANT,2020.1.3,Win32,60,,,,,,,0,0,16,16,14,1,0.5,,,,,,,,,,,
,,,,,,,ANT_images/none.png,ANT_images/cong_r.png,-0.25,i,0.1,0,0.5,level,2020-09-30_15h36.40.377,ANT,2020.1.3,Win32,60,,,,,,i,1,0,17,17,9,1,1.6,1.393225,,,,,,,,,,
,,,,,,,ANT_images/up.png,ANT_images/incong_l.png,0.25,e,0.5,0.1,1,level,2020-09-30_15h36.40.377,ANT,2020.1.3,Win32,60,,,,,,,0,0,18,18,40,1,1.2,,,,,,,,,,,
,,,,,,,ANT_images/double.png,ANT_images/neu_r.png,0.25,i,1.2,0.1,1.7,level,2020-09-30_15h36.40.377,ANT,2020.1.3,Win32,60,,,,,,,0,0,19,19,25,1,0.5,,,,,,,,,,,
,,,,,,,ANT_images/up.png,ANT_images/neu_l.png,0.25,e,1.4,0.1,1.9,level,2020-09-30_15h36.40.377,ANT,2020.1.3,Win32,60,,,,,,,0,0,20,20,36,1,0.3,,,,,,,,,,,
,,,,,,,ANT_images/down.png,ANT_images/incong_r.png,-0.25,i,1,0.1,1.5,level,2020-09-30_15h36.40.377,ANT,2020.1.3,Win32,60,,,,,,,0,0,21,21,47,1,0.7,,,,,,,,,,,
,,,,,,,ANT_images/center.png,ANT_images/neu_l.png,-0.25,e,0.8,0.1,1.3,level,2020-09-30_15h36.40.377,ANT,2020.1.3,Win32,60,,,,,,,0,0,22,22,18,1,0.9,,,,,,,,,,,
,,,,,,,ANT_images/none.png,ANT_images/cong_r.png,0.25,i,0.1,0,0.5,level,2020-09-30_15h36.40.377,ANT,2020.1.3,Win32,60,,,,,,i,1,0,23,23,3,1,1.6,1.50554,,,,,,,,,,
,,,,,,,ANT_images/double.png,ANT_images/incong_r.png,0.25,i,0.9,0.1,1.4,level,2020-09-30_15h36.40.377,ANT,2020.1.3,Win32,60,,,,,,,0,0,24,24,29,1,0.8,,,,,,,,,,,
,,,,,,,ANT_images/center.png,ANT_images/neu_l.png,0.25,e,1.1,0.1,1.6,level,2020-09-30_15h36.40.377,ANT,2020.1.3,Win32,60,,,,,,,0,0,25,25,12,1,0.6,,,,,,,,,,,
,,,,,,,ANT_images/double.png,ANT_images/incong_l.png,-0.25,e,1.5,0.1,2,level,2020-09-30_15h36.40.377,ANT,2020.1.3,Win32,60,,,,,,,0,0,26,26,34,1,0.2,,,,,,,,,,,
,,,,,,,ANT_images/up.png,ANT_images/neu_r.png,0.25,i,0.8,0.1,1.3,level,2020-09-30_15h36.40.377,ANT,2020.1.3,Win32,60,,,,,,,0,0,27,27,37,1,0.9,,,,,,,,,,,
,,,,,,,ANT_images/center.png,ANT_images/cong_r.png,-0.25,i,1.6,0.1,2.1,level,2020-09-30_15h36.40.377,ANT,2020.1.3,Win32,60,,,,,,,0,0,28,28,21,1,0.1,,,,,,,,,,,
,,,,,,,ANT_images/double.png,ANT_images/incong_r.png,-0.25,i,1.6,0.1,2.1,level,2020-09-30_15h36.40.377,ANT,2020.1.3,Win32,60,,,,,,,0,0,29,29,35,1,0.1,,,,,,,,,,,
,,,,,,,ANT_images/none.png,ANT_images/incong_r.png,-0.25,i,0.1,0,0.5,level,2020-09-30_15h36.40.377,ANT,2020.1.3,Win32,60,,,,,,,0,0,30,30,11,1,1.6,,,,,,,,,,,
,,,,,,,ANT_images/center.png,ANT_images/incong_r.png,-0.25,i,0.9,0.1,1.4,level,2020-09-30_15h36.40.377,ANT,2020.1.3,Win32,60,,,,,,,0,0,31,31,23,1,0.8,,,,,,,,,,,
,,,,,,,ANT_images/down.png,ANT_images/neu_l.png,-0.25,e,0.8,0.1,1.3,level,2020-09-30_15h36.40.377,ANT,2020.1.3,Win32,60,,,,,,,0,0,32,32,42,1,0.9,,,,,,,,,,,
,,,,,,,ANT_images/center.png,ANT_images/neu_r.png,-0.25,i,0.7,0.1,1.2,level,2020-09-30_15h36.40.377,ANT,2020.1.3,Win32,60,,,,,,,0,0,33,33,19,1,1,,,,,,,,,,,
,,,,,,,ANT_images/down.png,ANT_images/neu_r.png,-0.25,i,0.6,0.1,1.1,level,2020-09-30_15h36.40.377,ANT,2020.1.3,Win32,60,,,,,,,0,0,34,34,43,1,1.1,,,,,,,,,,,
,,,,,,,ANT_images/double.png,ANT_images/cong_r.png,-0.25,i,1.1,0.1,1.6,level,2020-09-30_15h36.40.377,ANT,2020.1.3,Win32,60,,,,,,,0,0,35,35,33,1,0.6,,,,,,,,,,,
,,,,,,,ANT_images/center.png,ANT_images/cong_r.png,0.25,i,1.4,0.1,1.9,level,2020-09-30_15h36.40.377,ANT,2020.1.3,Win32,60,,,,,,,0,0,36,36,15,1,0.3,,,,,,,,,,,
,,,,,,,ANT_images/center.png,ANT_images/neu_r.png,0.25,i,1,0.1,1.5,level,2020-09-30_15h36.40.377,ANT,2020.1.3,Win32,60,,,,,,,0,0,37,37,13,1,0.7,,,,,,,,,,,
,,,,,,,ANT_images/double.png,ANT_images/neu_l.png,-0.25,e,0.5,0.1,1,level,2020-09-30_15h36.40.377,ANT,2020.1.3,Win32,60,,,,,,,0,0,38,38,30,1,1.2,,,,,,,,,,,
,,,,,,,ANT_images/none.png,ANT_images/neu_r.png,-0.25,i,0.1,0,0.5,level,2020-09-30_15h36.40.377,ANT,2020.1.3,Win32,60,,,,,,i,1,0,39,39,7,1,1.6,1.18726,,,,,,,,,,
,,,,,,,ANT_images/up.png,ANT_images/incong_r.png,0.25,i,0.9,0.1,1.4,level,2020-09-30_15h36.40.377,ANT,2020.1.3,Win32,60,,,,,,,0,0,40,40,41,1,0.8,,,,,,,,,,,
,,,,,,,ANT_images/double.png,ANT_images/cong_l.png,0.25,e,0.6,0.1,1.1,level,2020-09-30_15h36.40.377,ANT,2020.1.3,Win32,60,,,,,,,0,0,41,41,26,1,1.1,,,,,,,,,,,
,,,,,,,ANT_images/up.png,ANT_images/cong_l.png,0.25,e,1.5,0.1,2,level,2020-09-30_15h36.40.377,ANT,2020.1.3,Win32,60,,,,,,,0,0,42,42,38,1,0.2,,,,,,,,,,,
,,,,,,,ANT_images/down.png,ANT_images/incong_l.png,-0.25,e,1.3,0.1,1.8,level,2020-09-30_15h36.40.377,ANT,2020.1.3,Win32,60,,,,,,,0,0,43,43,46,1,0.4,,,,,,,,,,,
,,,,,,,ANT_images/none.png,ANT_images/cong_l.png,-0.25,e,0.1,0,0.5,level,2020-09-30_15h36.40.377,ANT,2020.1.3,Win32,60,,,,,,e,1,0,44,44,8,1,1.6,1.30539,,,,,,,,,,
,,,,,,,ANT_images/down.png,ANT_images/cong_r.png,-0.25,i,0.4,0.1,0.9,level,2020-09-30_15h36.40.377,ANT,2020.1.3,Win32,60,,,,,,,0,0,45,45,45,1,1.3,,,,,,,,,,,
,,,,,,,ANT_images/down.png,ANT_images/cong_l.png,-0.25,e,1.2,0.1,1.7,level,2020-09-30_15h36.40.377,ANT,2020.1.3,Win32,60,,,,,,,0,0,46,46,44,1,0.5,,,,,,,,,,,
,,,,,,,ANT_images/center.png,ANT_images/incong_r.png,0.25,i,0.4,0.1,0.9,level,2020-09-30_15h36.40.377,ANT,2020.1.3,Win32,60,,,,,,,0,0,47,47,17,1,1.3,,,,,,,,,,,
,,,,,,,ANT_images/center.png,ANT_images/neu_l.png,0.25,e,1.1,0.1,1.6,level,2020-09-30_15h36.40.377,ANT,2020.1.3,Win32,60,,,,,,,0,1,0,48,12,1,0.6,,,,,,,,,,,
,,,,,,,ANT_images/double.png,ANT_images/neu_l.png,0.25,e,0.6,0.1,1.1,level,2020-09-30_15h36.40.377,ANT,2020.1.3,Win32,60,,,,,,,0,1,1,49,24,1,1.1,,,,,,,,,,,
,,,,,,,ANT_images/none.png,ANT_images/neu_l.png,0.25,e,0.1,0,0.5,level,2020-09-30_15h36.40.377,ANT,2020.1.3,Win32,60,,,,,,e,1,1,2,50,0,1,1.6,1.40821,,,,,,,,,,
,,,,,,,ANT_images/double.png,ANT_images/incong_l.png,-0.25,e,1.5,0.1,2,level,2020-09-30_15h36.40.377,ANT,2020.1.3,Win32,60,,,,,,,0,1,3,51,34,1,0.2,,,,,,,,,,,
,,,,,,,ANT_images/center.png,ANT_images/cong_r.png,0.25,i,1.4,0.1,1.9,level,2020-09-30_15h36.40.377,ANT,2020.1.3,Win32,60,,,,,,,0,1,4,52,15,1,0.3,,,,,,,,,,,
,,,,,,,ANT_images/double.png,ANT_images/cong_l.png,-0.25,e,0.4,0.1,0.9,level,2020-09-30_15h36.40.377,ANT,2020.1.3,Win32,60,,,,,,,0,1,5,53,32,1,1.3,,,,,,,,,,,
,,,,,,,ANT_images/none.png,ANT_images/incong_r.png,0.25,i,0.1,0,0.5,level,2020-09-30_15h36.40.377,ANT,2020.1.3,Win32,60,,,,,,,0,1,6,54,5,1,1.6,,,,,,,,,,,
,,,,,,,ANT_images/center.png,ANT_images/incong_r.png,0.25,i,0.4,0.1,0.9,level,2020-09-30_15h36.40.377,ANT,2020.1.3,Win32,60,,,,,,,0,1,7,55,17,1,1.3,,,,,,,,,,,
,,,,,,,ANT_images/double.png,ANT_images/cong_r.png,0.25,i,1.3,0.1,1.8,level,2020-09-30_15h36.40.377,ANT,2020.1.3,Win32,60,,,,,,,0,1,8,56,27,1,0.4,,,,,,,,,,,
,,,,,,,ANT_images/center.png,ANT_images/neu_r.png,-0.25,i,0.7,0.1,1.2,level,2020-09-30_15h36.40.377,ANT,2020.1.3,Win32,60,,,,,,,0,1,9,57,19,1,1,,,,,,,,,,,
,,,,,,,ANT_images/up.png,ANT_images/neu_r.png,0.25,i,0.8,0.1,1.3,level,2020-09-30_15h36.40.377,ANT,2020.1.3,Win32,60,,,,,,,0,1,10,58,37,1,0.9,,,,,,,,,,,
,,,,,,,ANT_images/center.png,ANT_images/cong_l.png,0.25,e,1.2,0.1,1.7,level,2020-09-30_15h36.40.377,ANT,2020.1.3,Win32,60,,,,,,,0,1,11,59,14,1,0.5,,,,,,,,,,,
,,,,,,,ANT_images/double.png,ANT_images/incong_l.png,0.25,e,1,0.1,1.5,level,2020-09-30_15h36.40.377,ANT,2020.1.3,Win32,60,,,,,,,0,1,12,60,28,1,0.7,,,,,,,,,,,
,,,,,,,ANT_images/none.png,ANT_images/cong_r.png,-0.25,i,0.1,0,0.5,level,2020-09-30_15h36.40.377,ANT,2020.1.3,Win32,60,,,,,,i,1,1,13,61,9,1,1.6,1.313615,,,,,,,,,,
,,,,,,,ANT_images/double.png,ANT_images/neu_l.png,-0.25,e,0.5,0.1,1,level,2020-09-30_15h36.40.377,ANT,2020.1.3,Win32,60,,,,,,,0,1,14,62,30,1,1.2,,,,,,,,,,,
,,,,,,,ANT_images/none.png,ANT_images/cong_r.png,0.25,i,0.1,0,0.5,level,2020-09-30_15h36.40.377,ANT,2020.1.3,Win32,60,,,,,,i,1,1,15,63,3,1,1.6,1.302895,,,,,,,,,,
,,,,,,,ANT_images/down.png,ANT_images/incong_l.png,-0.25,e,1.3,0.1,1.8,level,2020-09-30_15h36.40.377,ANT,2020.1.3,Win32,60,,,,,,,0,1,16,64,46,1,0.4,,,,,,,,,,,
,,,,,,,ANT_images/double.png,ANT_images/incong_r.png,0.25,i,0.9,0.1,1.4,level,2020-09-30_15h36.40.377,ANT,2020.1.3,Win32,60,,,,,,,0,1,17,65,29,1,0.8,,,,,,,,,,,
,,,,,,,ANT_images/up.png,ANT_images/neu_l.png,0.25,e,1.4,0.1,1.9,level,2020-09-30_15h36.40.377,ANT,2020.1.3,Win32,60,,,,,,,0,1,18,66,36,1,0.3,,,,,,,,,,,
,,,,,,,ANT_images/none.png,ANT_images/neu_r.png,0.25,i,0.1,0,0.5,level,2020-09-30_15h36.40.377,ANT,2020.1.3,Win32,60,,,,,,i,1,1,19,67,1,1,1.6,1.171915,,,,,,,,,,
,,,,,,,ANT_images/none.png,ANT_images/cong_l.png,-0.25,e,0.1,0,0.5,level,2020-09-30_15h36.40.377,ANT,2020.1.3,Win32,60,,,,,,e,1,1,20,68,8,1,1.6,1.265665,,,,,,,,,,
,,,,,,,ANT_images/down.png,ANT_images/neu_l.png,-0.25,e,0.8,0.1,1.3,level,2020-09-30_15h36.40.377,ANT,2020.1.3,Win32,60,,,,,,,0,1,21,69,42,1,0.9,,,,,,,,,,,
,,,,,,,ANT_images/none.png,ANT_images/incong_l.png,0.25,e,0.1,0,0.5,level,2020-09-30_15h36.40.377,ANT,2020.1.3,Win32,60,,,,,,e,1,1,22,70,4,1,1.6,1.31649,,,,,,,,,,
,,,,,,,ANT_images/center.png,ANT_images/incong_l.png,0.25,e,0.5,0.1,1,level,2020-09-30_15h36.40.377,ANT,2020.1.3,Win32,60,,,,,,,0,1,23,71,16,1,1.2,,,,,,,,,,,
,,,,,,,ANT_images/up.png,ANT_images/incong_r.png,0.25,i,0.9,0.1,1.4,level,2020-09-30_15h36.40.377,ANT,2020.1.3,Win32,60,,,,,,,0,1,24,72,41,1,0.8,,,,,,,,,,,
,,,,,,,ANT_images/none.png,ANT_images/cong_l.png,0.25,e,0.1,0,0.5,level,2020-09-30_15h36.40.377,ANT,2020.1.3,Win32,60,,,,,,e,1,1,25,73,2,1,1.6,1.17147,,,,,,,,,,
,,,,,,,ANT_images/double.png,ANT_images/cong_l.png,0.25,e,0.6,0.1,1.1,level,2020-09-30_15h36.40.377,ANT,2020.1.3,Win32,60,,,,,,,0,1,26,74,26,1,1.1,,,,,,,,,,,
,,,,,,,ANT_images/up.png,ANT_images/incong_l.png,0.25,e,0.5,0.1,1,level,2020-09-30_15h36.40.377,ANT,2020.1.3,Win32,60,,,,,,,0,1,27,75,40,1,1.2,,,,,,,,,,,
,,,,,,,ANT_images/center.png,ANT_images/cong_l.png,-0.25,e,1.5,0.1,2,level,2020-09-30_15h36.40.377,ANT,2020.1.3,Win32,60,,,,,,,0,1,28,76,20,1,0.2,,,,,,,,,,,
,,,,,,,ANT_images/double.png,ANT_images/cong_r.png,-0.25,i,1.1,0.1,1.6,level,2020-09-30_15h36.40.377,ANT,2020.1.3,Win32,60,,,,,,,0,1,29,77,33,1,0.6,,,,,,,,,,,
,,,,,,,ANT_images/double.png,ANT_images/neu_r.png,-0.25,i,0.7,0.1,1.2,level,2020-09-30_15h36.40.377,ANT,2020.1.3,Win32,60,,,,,,,0,1,30,78,31,1,1,,,,,,,,,,,
,,,,,,,ANT_images/double.png,ANT_images/incong_r.png,-0.25,i,1.6,0.1,2.1,level,2020-09-30_15h36.40.377,ANT,2020.1.3,Win32,60,,,,,,,0,1,31,79,35,1,0.1,,,,,,,,,,,
,,,,,,,ANT_images/down.png,ANT_images/incong_r.png,-0.25,i,1,0.1,1.5,level,2020-09-30_15h36.40.377,ANT,2020.1.3,Win32,60,,,,,,,0,1,32,80,47,1,0.7,,,,,,,,,,,
,,,,,,,ANT_images/none.png,ANT_images/neu_l.png,-0.25,e,0.1,0,0.5,level,2020-09-30_15h36.40.377,ANT,2020.1.3,Win32,60,,,,,,e,1,1,33,81,6,1,1.6,1.314125,,,,,,,,,,
,,,,,,,ANT_images/none.png,ANT_images/incong_l.png,-0.25,e,0.1,0,0.5,level,2020-09-30_15h36.40.377,ANT,2020.1.3,Win32,60,,,,,,e,1,1,34,82,10,1,1.6,1.40938,,,,,,,,,,
,,,,,,,ANT_images/center.png,ANT_images/incong_l.png,-0.25,e,1.3,0.1,1.8,level,2020-09-30_15h36.40.377,ANT,2020.1.3,Win32,60,,,,,,,0,1,35,83,22,1,0.4,,,,,,,,,,,
,,,,,,,ANT_images/center.png,ANT_images/incong_r.png,-0.25,i,0.9,0.1,1.4,level,2020-09-30_15h36.40.377,ANT,2020.1.3,Win32,60,,,,,,,0,1,36,84,23,1,0.8,,,,,,,,,,,
,,,,,,,ANT_images/none.png,ANT_images/neu_r.png,-0.25,i,0.1,0,0.5,level,2020-09-30_15h36.40.377,ANT,2020.1.3,Win32,60,,,,,,i,1,1,37,85,7,1,1.6,1.15123,,,,,,,,,,
,,,,,,,ANT_images/up.png,ANT_images/cong_r.png,0.25,i,1.4,0.1,1.9,level,2020-09-30_15h36.40.377,ANT,2020.1.3,Win32,60,,,,,,,0,1,38,86,39,1,0.3,,,,,,,,,,,
,,,,,,,ANT_images/center.png,ANT_images/cong_r.png,-0.25,i,1.6,0.1,2.1,level,2020-09-30_15h36.40.377,ANT,2020.1.3,Win32,60,,,,,,,0,1,39,87,21,1,0.1,,,,,,,,,,,
,,,,,,,ANT_images/double.png,ANT_images/neu_r.png,0.25,i,1.2,0.1,1.7,level,2020-09-30_15h36.40.377,ANT,2020.1.3,Win32,60,,,,,,,0,1,40,88,25,1,0.5,,,,,,,,,,,
,,,,,,,ANT_images/center.png,ANT_images/neu_l.png,-0.25,e,0.8,0.1,1.3,level,2020-09-30_15h36.40.377,ANT,2020.1.3,Win32,60,,,,,,,0,1,41,89,18,1,0.9,,,,,,,,,,,
,,,,,,,ANT_images/center.png,ANT_images/neu_r.png,0.25,i,1,0.1,1.5,level,2020-09-30_15h36.40.377,ANT,2020.1.3,Win32,60,,,,,,,0,1,42,90,13,1,0.7,,,,,,,,,,,
,,,,,,,ANT_images/down.png,ANT_images/cong_r.png,-0.25,i,0.4,0.1,0.9,level,2020-09-30_15h36.40.377,ANT,2020.1.3,Win32,60,,,,,,i,1,1,43,91,45,1,1.3,1.472035,,,,,,,,,,
,,,,,,,ANT_images/none.png,ANT_images/incong_r.png,-0.25,i,0.1,0,0.5,level,2020-09-30_15h36.40.377,ANT,2020.1.3,Win32,60,,,,,,,0,1,44,92,11,1,1.6,,,,,,,,,,,
,,,,,,,ANT_images/down.png,ANT_images/neu_r.png,-0.25,i,0.6,0.1,1.1,level,2020-09-30_15h36.40.377,ANT,2020.1.3,Win32,60,,,,,,,0,1,45,93,43,1,1.1,,,,,,,,,,,
,,,,,,,ANT_images/down.png,ANT_images/cong_l.png,-0.25,e,1.2,0.1,1.7,level,2020-09-30_15h36.40.377,ANT,2020.1.3,Win32,60,,,,,,,0,1,46,94,44,1,0.5,,,,,,,,,,,
,,,,,,,ANT_images/up.png,ANT_images/cong_l.png,0.25,e,1.5,0.1,2,level,2020-09-30_15h36.40.377,ANT,2020.1.3,Win32,60,,,,,,,0,1,47,95,38,1,0.2,,,,,,,,,,,
,,,,,,,ANT_images/double.png,ANT_images/neu_r.png,-0.25,i,0.7,0.1,1.2,level,2020-09-30_15h36.40.377,ANT,2020.1.3,Win32,60,,,,,,,0,,,,,,1,,,,,,,0,0,0,31,1
,,,,,,,ANT_images/center.png,ANT_images/incong_l.png,0.25,e,0.5,0.1,1,level,2020-09-30_15h36.40.377,ANT,2020.1.3,Win32,60,,,,,,,0,,,,,,1.2,,,,,,,0,1,1,16,1
,,,,,,,ANT_images/double.png,ANT_images/neu_r.png,0.25,i,1.2,0.1,1.7,level,2020-09-30_15h36.40.377,ANT,2020.1.3,Win32,60,,,,,,,0,,,,,,0.5,,,,,,,0,2,2,25,1
,,,,,,,ANT_images/center.png,ANT_images/neu_r.png,-0.25,i,0.7,0.1,1.2,level,2020-09-30_15h36.40.377,ANT,2020.1.3,Win32,60,,,,,,,0,,,,,,1,,,,,,,0,3,3,19,1
,,,,,,,ANT_images/up.png,ANT_images/cong_l.png,0.25,e,1.5,0.1,2,level,2020-09-30_15h36.40.377,ANT,2020.1.3,Win32,60,,,,,,,0,,,,,,0.2,,,,,,,0,4,4,38,1
,,,,,,,ANT_images/none.png,ANT_images/incong_l.png,0.25,e,0.1,0,0.5,level,2020-09-30_15h36.40.377,ANT,2020.1.3,Win32,60,,,,,,,0,,,,,,1.6,,,,,,,0,5,5,4,1
,,,,,,,ANT_images/center.png,ANT_images/cong_r.png,0.25,i,1.4,0.1,1.9,level,2020-09-30_15h36.40.377,ANT,2020.1.3,Win32,60,,,,,,,0,,,,,,0.3,,,,,,,0,6,6,15,1
,,,,,,,ANT_images/none.png,ANT_images/neu_l.png,0.25,e,0.1,0,0.5,level,2020-09-30_15h36.40.377,ANT,2020.1.3,Win32,60,,,,,,e,1,,,,,,1.6,1.310545,,,,,,0,7,7,0,1
,,,,,,,ANT_images/double.png,ANT_images/cong_r.png,0.25,i,1.3,0.1,1.8,level,2020-09-30_15h36.40.377,ANT,2020.1.3,Win32,60,,,,,,,0,,,,,,0.4,,,,,,,0,8,8,27,1
,,,,,,,ANT_images/double.png,ANT_images/incong_r.png,0.25,i,0.9,0.1,1.4,level,2020-09-30_15h36.40.377,ANT,2020.1.3,Win32,60,,,,,,,0,,,,,,0.8,,,,,,,0,9,9,29,1
,,,,,,,ANT_images/double.png,ANT_images/cong_r.png,-0.25,i,1.1,0.1,1.6,level,2020-09-30_15h36.40.377,ANT,2020.1.3,Win32,60,,,,,,,0,,,,,,0.6,,,,,,,0,10,10,33,1
,,,,,,,ANT_images/none.png,ANT_images/cong_l.png,0.25,e,0.1,0,0.5,level,2020-09-30_15h36.40.377,ANT,2020.1.3,Win32,60,,,,,,e,1,,,,,,1.6,1.425375,,,,,,0,11,11,2,1
,,,,,,,ANT_images/center.png,ANT_images/incong_l.png,-0.25,e,1.3,0.1,1.8,level,2020-09-30_15h36.40.377,ANT,2020.1.3,Win32,60,,,,,,,0,,,,,,0.4,,,,,,,0,12,12,22,1
,,,,,,,ANT_images/up.png,ANT_images/incong_l.png,0.25,e,0.5,0.1,1,level,2020-09-30_15h36.40.377,ANT,2020.1.3,Win32,60,,,,,,,0,,,,,,1.2,,,,,,,0,13,13,40,1
,,,,,,,ANT_images/center.png,ANT_images/cong_l.png,-0.25,e,1.5,0.1,2,level,2020-09-30_15h36.40.377,ANT,2020.1.3,Win32,60,,,,,,,0,,,,,,0.2,,,,,,,0,14,14,20,1
,,,,,,,ANT_images/up.png,ANT_images/cong_r.png,0.25,i,1.4,0.1,1.9,level,2020-09-30_15h36.40.377,ANT,2020.1.3,Win32,60,,,,,,,0,,,,,,0.3,,,,,,,0,15,15,39,1
,,,,,,,ANT_images/center.png,ANT_images/neu_l.png,0.25,e,1.1,0.1,1.6,level,2020-09-30_15h36.40.377,ANT,2020.1.3,Win32,60,,,,,,,0,,,,,,0.6,,,,,,,0,16,16,12,1
,,,,,,,ANT_images/none.png,ANT_images/incong_r.png,-0.25,i,0.1,0,0.5,level,2020-09-30_15h36.40.377,ANT,2020.1.3,Win32,60,,,,,,i,1,,,,,,1.6,1.58754,,,,,,0,17,17,11,1
,,,,,,,ANT_images/down.png,ANT_images/neu_l.png,-0.25,e,0.8,0.1,1.3,level,2020-09-30_15h36.40.377,ANT,2020.1.3,Win32,60,,,,,,,0,,,,,,0.9,,,,,,,0,18,18,42,1
,,,,,,,ANT_images/none.png,ANT_images/neu_r.png,-0.25,i,0.1,0,0.5,level,2020-09-30_15h36.40.377,ANT,2020.1.3,Win32,60,,,,,,i,1,,,,,,1.6,1.307445,,,,,,0,19,19,7,1
,,,,,,,ANT_images/double.png,ANT_images/incong_l.png,-0.25,e,1.5,0.1,2,level,2020-09-30_15h36.40.377,ANT,2020.1.3,Win32,60,,,,,,,0,,,,,,0.2,,,,,,,0,20,20,34,1
,,,,,,,ANT_images/none.png,ANT_images/neu_r.png,0.25,i,0.1,0,0.5,level,2020-09-30_15h36.40.377,ANT,2020.1.3,Win32,60,,,,,,i,1,,,,,,1.6,1.201505,,,,,,0,21,21,1,1
,,,,,,,ANT_images/center.png,ANT_images/neu_r.png,0.25,i,1,0.1,1.5,level,2020-09-30_15h36.40.377,ANT,2020.1.3,Win32,60,,,,,,,0,,,,,,0.7,,,,,,,0,22,22,13,1
,,,,,,,ANT_images/none.png,ANT_images/neu_l.png,-0.25,e,0.1,0,0.5,level,2020-09-30_15h36.40.377,ANT,2020.1.3,Win32,60,,,,,,e,1,,,,,,1.6,1.42787,,,,,,0,23,23,6,1
,,,,,,,ANT_images/none.png,ANT_images/cong_l.png,-0.25,e,0.1,0,0.5,level,2020-09-30_15h36.40.377,ANT,2020.1.3,Win32,60,,,,,,e,1,,,,,,1.6,1.326215,,,,,,0,24,24,8,1
,,,,,,,ANT_images/down.png,ANT_images/incong_l.png,-0.25,e,1.3,0.1,1.8,level,2020-09-30_15h36.40.377,ANT,2020.1.3,Win32,60,,,,,,,0,,,,,,0.4,,,,,,,0,25,25,46,1
,,,,,,,ANT_images/down.png,ANT_images/cong_r.png,-0.25,i,0.4,0.1,0.9,level,2020-09-30_15h36.40.377,ANT,2020.1.3,Win32,60,,,,,,i,1,,,,,,1.3,1.55473,,,,,,0,26,26,45,1
,,,,,,,ANT_images/down.png,ANT_images/neu_r.png,-0.25,i,0.6,0.1,1.1,level,2020-09-30_15h36.40.377,ANT,2020.1.3,Win32,60,,,,,,,0,,,,,,1.1,,,,,,,0,27,27,43,1
,,,,,,,ANT_images/center.png,ANT_images/cong_l.png,0.25,e,1.2,0.1,1.7,level,2020-09-30_15h36.40.377,ANT,2020.1.3,Win32,60,,,,,,,0,,,,,,0.5,,,,,,,0,28,28,14,1
,,,,,,,ANT_images/down.png,ANT_images/cong_l.png,-0.25,e,1.2,0.1,1.7,level,2020-09-30_15h36.40.377,ANT,2020.1.3,Win32,60,,,,,,,0,,,,,,0.5,,,,,,,0,29,29,44,1
,,,,,,,ANT_images/double.png,ANT_images/incong_r.png,-0.25,i,1.6,0.1,2.1,level,2020-09-30_15h36.40.377,ANT,2020.1.3,Win32,60,,,,,,,0,,,,,,0.1,,,,,,,0,30,30,35,1
,,,,,,,ANT_images/double.png,ANT_images/incong_l.png,0.25,e,1,0.1,1.5,level,2020-09-30_15h36.40.377,ANT,2020.1.3,Win32,60,,,,,,,0,,,,,,0.7,,,,,,,0,31,31,28,1
,,,,,,,ANT_images/none.png,ANT_images/cong_r.png,-0.25,i,0.1,0,0.5,level,2020-09-30_15h36.40.377,ANT,2020.1.3,Win32,60,,,,,,i,1,,,,,,1.6,1.315055,,,,,,0,32,32,9,1
,,,,,,,ANT_images/down.png,ANT_images/incong_r.png,-0.25,i,1,0.1,1.5,level,2020-09-30_15h36.40.377,ANT,2020.1.3,Win32,60,,,,,,,0,,,,,,0.7,,,,,,,0,33,33,47,1
,,,,,,,ANT_images/double.png,ANT_images/cong_l.png,0.25,e,0.6,0.1,1.1,level,2020-09-30_15h36.40.377,ANT,2020.1.3,Win32,60,,,,,,,0,,,,,,1.1,,,,,,,0,34,34,26,1
,,,,,,,ANT_images/none.png,ANT_images/incong_r.png,0.25,i,0.1,0,0.5,level,2020-09-30_15h36.40.377,ANT,2020.1.3,Win32,60,,,,,,i,1,,,,,,1.6,1.28341,,,,,,0,35,35,5,1
,,,,,,,ANT_images/none.png,ANT_images/incong_l.png,-0.25,e,0.1,0,0.5,level,2020-09-30_15h36.40.377,ANT,2020.1.3,Win32,60,,,,,,e,1,,,,,,1.6,1.36807,,,,,,0,36,36,10,1
,,,,,,,ANT_images/double.png,ANT_images/cong_l.png,-0.25,e,0.4,0.1,0.9,level,2020-09-30_15h36.40.377,ANT,2020.1.3,Win32,60,,,,,,,0,,,,,,1.3,,,,,,,0,37,37,32,1
,,,,,,,ANT_images/up.png,ANT_images/neu_r.png,0.25,i,0.8,0.1,1.3,level,2020-09-30_15h36.40.377,ANT,2020.1.3,Win32,60,,,,,,,0,,,,,,0.9,,,,,,,0,38,38,37,1
,,,,,,,ANT_images/up.png,ANT_images/incong_r.png,0.25,i,0.9,0.1,1.4,level,2020-09-30_15h36.40.377,ANT,2020.1.3,Win32,60,,,,,,,0,,,,,,0.8,,,,,,,0,39,39,41,1
,,,,,,,ANT_images/double.png,ANT_images/neu_l.png,0.25,e,0.6,0.1,1.1,level,2020-09-30_15h36.40.377,ANT,2020.1.3,Win32,60,,,,,,,0,,,,,,1.1,,,,,,,0,40,40,24,1
,,,,,,,ANT_images/center.png,ANT_images/cong_r.png,-0.25,i,1.6,0.1,2.1,level,2020-09-30_15h36.40.377,ANT,2020.1.3,Win32,60,,,,,,,0,,,,,,0.1,,,,,,,0,41,41,21,1
,,,,,,,ANT_images/double.png,ANT_images/neu_l.png,-0.25,e,0.5,0.1,1,level,2020-09-30_15h36.40.377,ANT,2020.1.3,Win32,60,,,,,,,0,,,,,,1.2,,,,,,,0,42,42,30,1
,,,,,,,ANT_images/center.png,ANT_images/neu_l.png,-0.25,e,0.8,0.1,1.3,level,2020-09-30_15h36.40.377,ANT,2020.1.3,Win32,60,,,,,,,0,,,,,,0.9,,,,,,,0,43,43,18,1
,,,,,,,ANT_images/none.png,ANT_images/cong_r.png,0.25,i,0.1,0,0.5,level,2020-09-30_15h36.40.377,ANT,2020.1.3,Win32,60,,,,,,i,1,,,,,,1.6,1.163185,,,,,,0,44,44,3,1
,,,,,,,ANT_images/center.png,ANT_images/incong_r.png,0.25,i,0.4,0.1,0.9,level,2020-09-30_15h36.40.377,ANT,2020.1.3,Win32,60,,,,,,,0,,,,,,1.3,,,,,,,0,45,45,17,1
,,,,,,,ANT_images/center.png,ANT_images/incong_r.png,-0.25,i,0.9,0.1,1.4,level,2020-09-30_15h36.40.377,ANT,2020.1.3,Win32,60,,,,,,,0,,,,,,0.8,,,,,,,0,46,46,23,1
,,,,,,,ANT_images/up.png,ANT_images/neu_l.png,0.25,e,1.4,0.1,1.9,level,2020-09-30_15h36.40.377,ANT,2020.1.3,Win32,60,,,,,,,0,,,,,,0.3,,,,,,,0,47,47,36,1
,,,,,,,ANT_images/none.png,ANT_images/cong_r.png,-0.25,i,0.1,0,0.5,level,2020-09-30_15h36.40.377,ANT,2020.1.3,Win32,60,,,,,,i,1,,,,,,1.6,1.27378,,,,,,1,0,48,9,1
,,,,,,,ANT_images/center.png,ANT_images/cong_l.png,0.25,e,1.2,0.1,1.7,level,2020-09-30_15h36.40.377,ANT,2020.1.3,Win32,60,,,,,,,0,,,,,,0.5,,,,,,,1,1,49,14,1
,,,,,,,ANT_images/center.png,ANT_images/neu_r.png,0.25,i,1,0.1,1.5,level,2020-09-30_15h36.40.377,ANT,2020.1.3,Win32,60,,,,,,,0,,,,,,0.7,,,,,,,1,2,50,13,1
,,,,,,,ANT_images/center.png,ANT_images/neu_l.png,-0.25,e,0.8,0.1,1.3,level,2020-09-30_15h36.40.377,ANT,2020.1.3,Win32,60,,,,,,,0,,,,,,0.9,,,,,,,1,3,51,18,1
,,,,,,,ANT_images/down.png,ANT_images/cong_r.png,-0.25,i,0.4,0.1,0.9,level,2020-09-30_15h36.40.377,ANT,2020.1.3,Win32,60,,,,,,,0,,,,,,1.3,,,,,,,1,4,52,45,1
,,,,,,,ANT_images/up.png,ANT_images/incong_l.png,0.25,e,0.5,0.1,1,level,2020-09-30_15h36.40.377,ANT,2020.1.3,Win32,60,,,,,,,0,,,,,,1.2,,,,,,,1,5,53,40,1
,,,,,,,ANT_images/none.png,ANT_images/neu_l.png,-0.25,e,0.1,0,0.5,level,2020-09-30_15h36.40.377,ANT,2020.1.3,Win32,60,,,,,,e,1,,,,,,1.6,1.16342,,,,,,1,6,54,6,1
,,,,,,,ANT_images/double.png,ANT_images/neu_r.png,0.25,i,1.2,0.1,1.7,level,2020-09-30_15h36.40.377,ANT,2020.1.3,Win32,60,,,,,,,0,,,,,,0.5,,,,,,,1,7,55,25,1
,,,,,,,ANT_images/double.png,ANT_images/cong_r.png,-0.25,i,1.1,0.1,1.6,level,2020-09-30_15h36.40.377,ANT,2020.1.3,Win32,60,,,,,,,0,,,,,,0.6,,,,,,,1,8,56,33,1
,,,,,,,ANT_images/double.png,ANT_images/neu_r.png,-0.25,i,0.7,0.1,1.2,level,2020-09-30_15h36.40.377,ANT,2020.1.3,Win32,60,,,,,,,0,,,,,,1,,,,,,,1,9,57,31,1
,,,,,,,ANT_images/none.png,ANT_images/neu_r.png,-0.25,i,0.1,0,0.5,level,2020-09-30_15h36.40.377,ANT,2020.1.3,Win32,60,,,,,,i,1,,,,,,1.6,1.065765,,,,,,1,10,58,7,1
,,,,,,,ANT_images/double.png,ANT_images/cong_l.png,-0.25,e,0.4,0.1,0.9,level,2020-09-30_15h36.40.377,ANT,2020.1.3,Win32,60,,,,,,e,1,,,,,,1.3,1.422775,,,,,,1,11,59,32,1
,,,,,,,ANT_images/none.png,ANT_images/incong_r.png,-0.25,i,0.1,0,0.5,level,2020-09-30_15h36.40.377,ANT,2020.1.3,Win32,60,,,,,,i,1,,,,,,1.6,1.42175,,,,,,1,12,60,11,1
,,,,,,,ANT_images/none.png,ANT_images/neu_r.png,0.25,i,0.1,0,0.5,level,2020-09-30_15h36.40.377,ANT,2020.1.3,Win32,60,,,,,,i,1,,,,,,1.6,1.14425,,,,,,1,13,61,1,1
,,,,,,,ANT_images/down.png,ANT_images/incong_l.png,-0.25,e,1.3,0.1,1.8,level,2020-09-30_15h36.40.377,ANT,2020.1.3,Win32,60,,,,,,,0,,,,,,0.4,,,,,,,1,14,62,46,1
,,,,,,,ANT_images/up.png,ANT_images/neu_r.png,0.25,i,0.8,0.1,1.3,level,2020-09-30_15h36.40.377,ANT,2020.1.3,Win32,60,,,,,,,0,,,,,,0.9,,,,,,,1,15,63,37,1
,,,,,,,ANT_images/double.png,ANT_images/incong_l.png,0.25,e,1,0.1,1.5,level,2020-09-30_15h36.40.377,ANT,2020.1.3,Win32,60,,,,,,,0,,,,,,0.7,,,,,,,1,16,64,28,1
,,,,,,,ANT_images/none.png,ANT_images/cong_l.png,0.25,e,0.1,0,0.5,level,2020-09-30_15h36.40.377,ANT,2020.1.3,Win32,60,,,,,,e,1,,,,,,1.6,1.303745,,,,,,1,17,65,2,1
,,,,,,,ANT_images/center.png,ANT_images/neu_l.png,0.25,e,1.1,0.1,1.6,level,2020-09-30_15h36.40.377,ANT,2020.1.3,Win32,60,,,,,,,0,,,,,,0.6,,,,,,,1,18,66,12,1
,,,,,,,ANT_images/center.png,ANT_images/incong_r.png,-0.25,i,0.9,0.1,1.4,level,2020-09-30_15h36.40.377,ANT,2020.1.3,Win32,60,,,,,,,0,,,,,,0.8,,,,,,,1,19,67,23,1
,,,,,,,ANT_images/double.png,ANT_images/incong_l.png,-0.25,e,1.5,0.1,2,level,2020-09-30_15h36.40.377,ANT,2020.1.3,Win32,60,,,,,,,0,,,,,,0.2,,,,,,,1,20,68,34,1
,,,,,,,ANT_images/down.png,ANT_images/incong_r.png,-0.25,i,1,0.1,1.5,level,2020-09-30_15h36.40.377,ANT,2020.1.3,Win32,60,,,,,,,0,,,,,,0.7,,,,,,,1,21,69,47,1
,,,,,,,ANT_images/none.png,ANT_images/cong_l.png,-0.25,e,0.1,0,0.5,level,2020-09-30_15h36.40.377,ANT,2020.1.3,Win32,60,,,,,,e,1,,,,,,1.6,1.34405,,,,,,1,22,70,8,1
,,,,,,,ANT_images/center.png,ANT_images/incong_l.png,-0.25,e,1.3,0.1,1.8,level,2020-09-30_15h36.40.377,ANT,2020.1.3,Win32,60,,,,,,,0,,,,,,0.4,,,,,,,1,23,71,22,1
,,,,,,,ANT_images/double.png,ANT_images/cong_r.png,0.25,i,1.3,0.1,1.8,level,2020-09-30_15h36.40.377,ANT,2020.1.3,Win32,60,,,,,,,0,,,,,,0.4,,,,,,,1,24,72,27,1
,,,,,,,ANT_images/down.png,ANT_images/cong_l.png,-0.25,e,1.2,0.1,1.7,level,2020-09-30_15h36.40.377,ANT,2020.1.3,Win32,60,,,,,,,0,,,,,,0.5,,,,,,,1,25,73,44,1
,,,,,,,ANT_images/none.png,ANT_images/incong_l.png,0.25,e,0.1,0,0.5,level,2020-09-30_15h36.40.377,ANT,2020.1.3,Win32,60,,,,,,e,1,,,,,,1.6,1.326345,,,,,,1,26,74,4,1
,,,,,,,ANT_images/up.png,ANT_images/neu_l.png,0.25,e,1.4,0.1,1.9,level,2020-09-30_15h36.40.377,ANT,2020.1.3,Win32,60,,,,,,,0,,,,,,0.3,,,,,,,1,27,75,36,1
,,,,,,,ANT_images/double.png,ANT_images/cong_l.png,0.25,e,0.6,0.1,1.1,level,2020-09-30_15h36.40.377,ANT,2020.1.3,Win32,60,,,,,,,0,,,,,,1.1,,,,,,,1,28,76,26,1
,,,,,,,ANT_images/none.png,ANT_images/incong_l.png,-0.25,e,0.1,0,0.5,level,2020-09-30_15h36.40.377,ANT,2020.1.3,Win32,60,,,,,,e,1,,,,,,1.6,1.47237,,,,,,1,29,77,10,1
,,,,,,,ANT_images/double.png,ANT_images/incong_r.png,-0.25,i,1.6,0.1,2.1,level,2020-09-30_15h36.40.377,ANT,2020.1.3,Win32,60,,,,,,,0,,,,,,0.1,,,,,,,1,30,78,35,1
,,,,,,,ANT_images/center.png,ANT_images/incong_l.png,0.25,e,0.5,0.1,1,level,2020-09-30_15h36.40.377,ANT,2020.1.3,Win32,60,,,,,,,0,,,,,,1.2,,,,,,,1,31,79,16,1
,,,,,,,ANT_images/down.png,ANT_images/neu_l.png,-0.25,e,0.8,0.1,1.3,level,2020-09-30_15h36.40.377,ANT,2020.1.3,Win32,60,,,,,,,0,,,,,,0.9,,,,,,,1,32,80,42,1
,,,,,,,ANT_images/down.png,ANT_images/neu_r.png,-0.25,i,0.6,0.1,1.1,level,2020-09-30_15h36.40.377,ANT,2020.1.3,Win32,60,,,,,,,0,,,,,,1.1,,,,,,,1,33,81,43,1
,,,,,,,ANT_images/center.png,ANT_images/cong_r.png,-0.25,i,1.6,0.1,2.1,level,2020-09-30_15h36.40.377,ANT,2020.1.3,Win32,60,,,,,,,0,,,,,,0.1,,,,,,,1,34,82,21,1
,,,,,,,ANT_images/up.png,ANT_images/incong_r.png,0.25,i,0.9,0.1,1.4,level,2020-09-30_15h36.40.377,ANT,2020.1.3,Win32,60,,,,,,,0,,,,,,0.8,,,,,,,1,35,83,41,1
,,,,,,,ANT_images/double.png,ANT_images/incong_r.png,0.25,i,0.9,0.1,1.4,level,2020-09-30_15h36.40.377,ANT,2020.1.3,Win32,60,,,,,,,0,,,,,,0.8,,,,,,,1,36,84,29,1
,,,,,,,ANT_images/double.png,ANT_images/neu_l.png,-0.25,e,0.5,0.1,1,level,2020-09-30_15h36.40.377,ANT,2020.1.3,Win32,60,,,,,,,0,,,,,,1.2,,,,,,,1,37,85,30,1
,,,,,,,ANT_images/center.png,ANT_images/cong_r.png,0.25,i,1.4,0.1,1.9,level,2020-09-30_15h36.40.377,ANT,2020.1.3,Win32,60,,,,,,,0,,,,,,0.3,,,,,,,1,38,86,15,1
,,,,,,,ANT_images/up.png,ANT_images/cong_l.png,0.25,e,1.5,0.1,2,level,2020-09-30_15h36.40.377,ANT,2020.1.3,Win32,60,,,,,,,0,,,,,,0.2,,,,,,,1,39,87,38,1
,,,,,,,ANT_images/center.png,ANT_images/incong_r.png,0.25,i,0.4,0.1,0.9,level,2020-09-30_15h36.40.377,ANT,2020.1.3,Win32,60,,,,,,,0,,,,,,1.3,,,,,,,1,40,88,17,1
,,,,,,,ANT_images/double.png,ANT_images/neu_l.png,0.25,e,0.6,0.1,1.1,level,2020-09-30_15h36.40.377,ANT,2020.1.3,Win32,60,,,,,,,0,,,,,,1.1,,,,,,,1,41,89,24,1
,,,,,,,ANT_images/none.png,ANT_images/neu_l.png,0.25,e,0.1,0,0.5,level,2020-09-30_15h36.40.377,ANT,2020.1.3,Win32,60,,,,,,e,1,,,,,,1.6,1.13493,,,,,,1,42,90,0,1
,,,,,,,ANT_images/center.png,ANT_images/neu_r.png,-0.25,i,0.7,0.1,1.2,level,2020-09-30_15h36.40.377,ANT,2020.1.3,Win32,60,,,,,,,0,,,,,,1,,,,,,,1,43,91,19,1
,,,,,,,ANT_images/none.png,ANT_images/incong_r.png,0.25,i,0.1,0,0.5,level,2020-09-30_15h36.40.377,ANT,2020.1.3,Win32,60,,,,,,i,1,,,,,,1.6,1.37286,,,,,,1,44,92,5,1
,,,,,,,ANT_images/none.png,ANT_images/cong_r.png,0.25,i,0.1,0,0.5,level,2020-09-30_15h36.40.377,ANT,2020.1.3,Win32,60,,,,,,i,1,,,,,,1.6,1.153105,,,,,,1,45,93,3,1
,,,,,,,ANT_images/up.png,ANT_images/cong_r.png,0.25,i,1.4,0.1,1.9,level,2020-09-30_15h36.40.377,ANT,2020.1.3,Win32,60,,,,,,,0,,,,,,0.3,,,,,,,1,46,94,39,1
,,,,,,,ANT_images/center.png,ANT_images/cong_l.png,-0.25,e,1.5,0.1,2,level,2020-09-30_15h36.40.377,ANT,2020.1.3,Win32,60,,,,,,,0,,,,,,0.2,,,,,,,1,47,95,20,1
