pract_resp.keys,pract_resp.corr,pract_resp.rt,practice.thisRepN,practice.thisTrialN,practice.thisN,practice.thisIndex,practice.ran,cue_file,flanker,pos,correct,fix1,cue_time,stimStart,participant,date,expName,psychopyVersion,OS,frameRate,key_resp_6.keys,key_resp_6.rt,key_resp_7.keys,key_resp_7.rt,response.keys,response.corr,trials.thisRepN,trials.thisTrialN,trials.thisN,trials.thisIndex,trials.ran,postFix,response.rt,trials_2.thisRepN,trials_2.thisTrialN,trials_2.thisN,trials_2.thisIndex,trials_2.ran,trials_3.thisRepN,trials_3.thisTrialN,trials_3.thisN,trials_3.thisIndex,trials_3.ran
i,1,1.328,0,0,0,4,1,ANT_images/none.png,ANT_images/cong_r.png,0.25,i,0.1,0,0.5,minute,2020-09-30_14h48.17.372,ANT,2020.1.3,MacIntel,60,,,,,,,,,,,,,,,,,,,,,,,
i,1,1.272,0,1,1,3,1,ANT_images/none.png,ANT_images/cong_r.png,-0.25,i,0.1,0,0.5,minute,2020-09-30_14h48.17.372,ANT,2020.1.3,MacIntel,60,,,,,,,,,,,,,,,,,,,,,,,
e,1,0.83,0,2,2,0,1,ANT_images/none.png,ANT_images/cong_l.png,-0.25,e,0.1,0,0.5,minute,2020-09-30_14h48.17.372,ANT,2020.1.3,MacIntel,60,,,,,,,,,,,,,,,,,,,,,,,
e,0,0.961,0,3,3,11,1,ANT_images/double.png,ANT_images/incong_r.png,-0.25,i,1.6,0.1,2.1,minute,2020-09-30_14h48.17.372,ANT,2020.1.3,MacIntel,60,,,,,,,,,,,,,,,,,,,,,,,
,0,,0,4,4,22,1,ANT_images/center.png,ANT_images/incong_l.png,-0.25,e,1.3,0.1,1.8,minute,2020-09-30_14h48.17.372,ANT,2020.1.3,MacIntel,60,,,,,,,,,,,,,,,,,,,,,,,
,0,,0,5,5,2,1,ANT_images/none.png,ANT_images/cong_l.png,0.25,e,0.1,0,0.5,minute,2020-09-30_14h48.17.372,ANT,2020.1.3,MacIntel,60,,,,,,,,,,,,,,,,,,,,,,,
i,0,0.962,0,6,6,12,1,ANT_images/double.png,ANT_images/incong_l.png,-0.25,e,1.5,0.1,2,minute,2020-09-30_14h48.17.372,ANT,2020.1.3,MacIntel,60,,,,,,,,,,,,,,,,,,,,,,,
e,1,0.954,0,7,7,18,1,ANT_images/down.png,ANT_images/cong_l.png,-0.25,e,1.2,0.1,1.7,minute,2020-09-30_14h48.17.372,ANT,2020.1.3,MacIntel,60,,,,,,,,,,,,,,,,,,,,,,,
i,1,0.694,0,8,8,10,1,ANT_images/double.png,ANT_images/neu_r.png,-0.25,i,0.7,0.1,1.2,minute,2020-09-30_14h48.17.372,ANT,2020.1.3,MacIntel,60,,,,,,,,,,,,,,,,,,,,,,,
i,1,0.783,0,9,9,14,1,ANT_images/double.png,ANT_images/neu_r.png,0.25,i,1.2,0.1,1.7,minute,2020-09-30_14h48.17.372,ANT,2020.1.3,MacIntel,60,,,,,,,,,,,,,,,,,,,,,,,
i,1,0.766,0,10,10,9,1,ANT_images/center.png,ANT_images/neu_r.png,0.25,i,1,0.1,1.5,minute,2020-09-30_14h48.17.372,ANT,2020.1.3,MacIntel,60,,,,,,,,,,,,,,,,,,,,,,,
e,1,0.67,0,11,11,5,1,ANT_images/center.png,ANT_images/neu_l.png,-0.25,e,0.8,0.1,1.3,minute,2020-09-30_14h48.17.372,ANT,2020.1.3,MacIntel,60,,,,,,,,,,,,,,,,,,,,,,,
e,0,0.849,0,12,12,20,1,ANT_images/down.png,ANT_images/incong_r.png,-0.25,i,1,0.1,1.5,minute,2020-09-30_14h48.17.372,ANT,2020.1.3,MacIntel,60,,,,,,,,,,,,,,,,,,,,,,,
i,1,0.758,0,13,13,21,1,ANT_images/none.png,ANT_images/neu_r.png,0.25,i,0.1,0,0.5,minute,2020-09-30_14h48.17.372,ANT,2020.1.3,MacIntel,60,,,,,,,,,,,,,,,,,,,,,,,
e,1,0.91,0,14,14,19,1,ANT_images/down.png,ANT_images/incong_l.png,-0.25,e,1.3,0.1,1.8,minute,2020-09-30_14h48.17.372,ANT,2020.1.3,MacIntel,60,,,,,,,,,,,,,,,,,,,,,,,
i,1,1.319,0,15,15,23,1,ANT_images/center.png,ANT_images/incong_r.png,0.25,i,0.4,0.1,0.9,minute,2020-09-30_14h48.17.372,ANT,2020.1.3,MacIntel,60,,,,,,,,,,,,,,,,,,,,,,,
i,1,0.845,0,16,16,6,1,ANT_images/center.png,ANT_images/neu_r.png,0.25,i,1,0.1,1.5,minute,2020-09-30_14h48.17.372,ANT,2020.1.3,MacIntel,60,,,,,,,,,,,,,,,,,,,,,,,
e,1,0.77,0,17,17,16,1,ANT_images/up.png,ANT_images/neu_l.png,0.25,e,1.4,0.1,1.9,minute,2020-09-30_14h48.17.372,ANT,2020.1.3,MacIntel,60,,,,,,,,,,,,,,,,,,,,,,,
e,1,0.789,0,18,18,15,1,ANT_images/up.png,ANT_images/cong_l.png,0.25,e,1.5,0.1,2,minute,2020-09-30_14h48.17.372,ANT,2020.1.3,MacIntel,60,,,,,,,,,,,,,,,,,,,,,,,
e,1,0.771,0,19,19,7,1,ANT_images/center.png,ANT_images/neu_l.png,0.25,e,1.1,0.1,1.6,minute,2020-09-30_14h48.17.372,ANT,2020.1.3,MacIntel,60,,,,,,,,,,,,,,,,,,,,,,,
i,1,0.867,0,20,20,1,1,ANT_images/none.png,ANT_images/incong_r.png,0.25,i,0.1,0,0.5,minute,2020-09-30_14h48.17.372,ANT,2020.1.3,MacIntel,60,,,,,,,,,,,,,,,,,,,,,,,
i,1,0.633,0,21,21,8,1,ANT_images/center.png,ANT_images/cong_r.png,0.25,i,1.4,0.1,1.9,minute,2020-09-30_14h48.17.372,ANT,2020.1.3,MacIntel,60,,,,,,,,,,,,,,,,,,,,,,,
i,1,0.806,0,22,22,17,1,ANT_images/up.png,ANT_images/incong_r.png,0.25,i,0.9,0.1,1.4,minute,2020-09-30_14h48.17.372,ANT,2020.1.3,MacIntel,60,,,,,,,,,,,,,,,,,,,,,,,
i,1,0.686,0,23,23,13,1,ANT_images/double.png,ANT_images/cong_r.png,0.25,i,1.3,0.1,1.8,minute,2020-09-30_14h48.17.372,ANT,2020.1.3,MacIntel,60,,,,,,,,,,,,,,,,,,,,,,,
,,,,,,,,ANT_images/double.png,ANT_images/neu_l.png,-0.25,e,0.5,0.1,1,minute,2020-09-30_14h48.17.372,ANT,2020.1.3,MacIntel,60,space,3.511,space,11.437,,0,0,0,0,30,1,1.2,,,,,,,,,,,
,,,,,,,,ANT_images/center.png,ANT_images/cong_r.png,-0.25,i,1.6,0.1,2.1,minute,2020-09-30_14h48.17.372,ANT,2020.1.3,MacIntel,60,,,,,,0,0,1,1,21,1,0.1,,,,,,,,,,,
,,,,,,,,ANT_images/double.png,ANT_images/cong_l.png,-0.25,e,0.4,0.1,0.9,minute,2020-09-30_14h48.17.372,ANT,2020.1.3,MacIntel,60,,,,,e,1,0,2,2,32,1,1.3,1.601,,,,,,,,,,
,,,,,,,,ANT_images/up.png,ANT_images/incong_l.png,0.25,e,0.5,0.1,1,minute,2020-09-30_14h48.17.372,ANT,2020.1.3,MacIntel,60,,,,,,0,0,3,3,40,1,1.2,,,,,,,,,,,
,,,,,,,,ANT_images/center.png,ANT_images/cong_l.png,-0.25,e,1.5,0.1,2,minute,2020-09-30_14h48.17.372,ANT,2020.1.3,MacIntel,60,,,,,,0,0,4,4,20,1,0.2,,,,,,,,,,,
,,,,,,,,ANT_images/up.png,ANT_images/neu_r.png,0.25,i,0.8,0.1,1.3,minute,2020-09-30_14h48.17.372,ANT,2020.1.3,MacIntel,60,,,,,,0,0,5,5,37,1,0.9,,,,,,,,,,,
,,,,,,,,ANT_images/center.png,ANT_images/neu_l.png,-0.25,e,0.8,0.1,1.3,minute,2020-09-30_14h48.17.372,ANT,2020.1.3,MacIntel,60,,,,,,0,0,6,6,18,1,0.9,,,,,,,,,,,
,,,,,,,,ANT_images/up.png,ANT_images/cong_l.png,0.25,e,1.5,0.1,2,minute,2020-09-30_14h48.17.372,ANT,2020.1.3,MacIntel,60,,,,,,0,0,7,7,38,1,0.2,,,,,,,,,,,
,,,,,,,,ANT_images/double.png,ANT_images/incong_l.png,0.25,e,1,0.1,1.5,minute,2020-09-30_14h48.17.372,ANT,2020.1.3,MacIntel,60,,,,,,0,0,8,8,28,1,0.7,,,,,,,,,,,
,,,,,,,,ANT_images/none.png,ANT_images/cong_l.png,0.25,e,0.1,0,0.5,minute,2020-09-30_14h48.17.372,ANT,2020.1.3,MacIntel,60,,,,,e,1,0,9,9,2,1,1.6,1.327,,,,,,,,,,
,,,,,,,,ANT_images/double.png,ANT_images/cong_r.png,-0.25,i,1.1,0.1,1.6,minute,2020-09-30_14h48.17.372,ANT,2020.1.3,MacIntel,60,,,,,,0,0,10,10,33,1,0.6,,,,,,,,,,,
,,,,,,,,ANT_images/none.png,ANT_images/neu_l.png,0.25,e,0.1,0,0.5,minute,2020-09-30_14h48.17.372,ANT,2020.1.3,MacIntel,60,,,,,e,1,0,11,11,0,1,1.6,1.194,,,,,,,,,,
,,,,,,,,ANT_images/double.png,ANT_images/incong_l.png,-0.25,e,1.5,0.1,2,minute,2020-09-30_14h48.17.372,ANT,2020.1.3,MacIntel,60,,,,,,0,0,12,12,34,1,0.2,,,,,,,,,,,
,,,,,,,,ANT_images/none.png,ANT_images/cong_l.png,-0.25,e,0.1,0,0.5,minute,2020-09-30_14h48.17.372,ANT,2020.1.3,MacIntel,60,,,,,e,1,0,13,13,8,1,1.6,1.223,,,,,,,,,,
,,,,,,,,ANT_images/double.png,ANT_images/neu_l.png,0.25,e,0.6,0.1,1.1,minute,2020-09-30_14h48.17.372,ANT,2020.1.3,MacIntel,60,,,,,,0,0,14,14,24,1,1.1,,,,,,,,,,,
,,,,,,,,ANT_images/down.png,ANT_images/neu_r.png,-0.25,i,0.6,0.1,1.1,minute,2020-09-30_14h48.17.372,ANT,2020.1.3,MacIntel,60,,,,,,0,0,15,15,43,1,1.1,,,,,,,,,,,
,,,,,,,,ANT_images/up.png,ANT_images/incong_r.png,0.25,i,0.9,0.1,1.4,minute,2020-09-30_14h48.17.372,ANT,2020.1.3,MacIntel,60,,,,,,0,0,16,16,41,1,0.8,,,,,,,,,,,
,,,,,,,,ANT_images/up.png,ANT_images/neu_l.png,0.25,e,1.4,0.1,1.9,minute,2020-09-30_14h48.17.372,ANT,2020.1.3,MacIntel,60,,,,,,0,0,17,17,36,1,0.3,,,,,,,,,,,
,,,,,,,,ANT_images/none.png,ANT_images/neu_r.png,0.25,i,0.1,0,0.5,minute,2020-09-30_14h48.17.372,ANT,2020.1.3,MacIntel,60,,,,,i,1,0,18,18,1,1,1.6,1.137,,,,,,,,,,
,,,,,,,,ANT_images/center.png,ANT_images/neu_r.png,-0.25,i,0.7,0.1,1.2,minute,2020-09-30_14h48.17.372,ANT,2020.1.3,MacIntel,60,,,,,,0,0,19,19,19,1,1,,,,,,,,,,,
,,,,,,,,ANT_images/down.png,ANT_images/neu_l.png,-0.25,e,0.8,0.1,1.3,minute,2020-09-30_14h48.17.372,ANT,2020.1.3,MacIntel,60,,,,,,0,0,20,20,42,1,0.9,,,,,,,,,,,
,,,,,,,,ANT_images/center.png,ANT_images/incong_l.png,0.25,e,0.5,0.1,1,minute,2020-09-30_14h48.17.372,ANT,2020.1.3,MacIntel,60,,,,,,0,0,21,21,16,1,1.2,,,,,,,,,,,
,,,,,,,,ANT_images/center.png,ANT_images/cong_l.png,0.25,e,1.2,0.1,1.7,minute,2020-09-30_14h48.17.372,ANT,2020.1.3,MacIntel,60,,,,,,0,0,22,22,14,1,0.5,,,,,,,,,,,
,,,,,,,,ANT_images/none.png,ANT_images/incong_r.png,0.25,i,0.1,0,0.5,minute,2020-09-30_14h48.17.372,ANT,2020.1.3,MacIntel,60,,,,,i,1,0,23,23,5,1,1.6,1.311,,,,,,,,,,
,,,,,,,,ANT_images/down.png,ANT_images/incong_r.png,-0.25,i,1,0.1,1.5,minute,2020-09-30_14h48.17.372,ANT,2020.1.3,MacIntel,60,,,,,,0,0,24,24,47,1,0.7,,,,,,,,,,,
,,,,,,,,ANT_images/double.png,ANT_images/cong_l.png,0.25,e,0.6,0.1,1.1,minute,2020-09-30_14h48.17.372,ANT,2020.1.3,MacIntel,60,,,,,,0,0,25,25,26,1,1.1,,,,,,,,,,,
,,,,,,,,ANT_images/none.png,ANT_images/incong_r.png,-0.25,i,0.1,0,0.5,minute,2020-09-30_14h48.17.372,ANT,2020.1.3,MacIntel,60,,,,,i,1,0,26,26,11,1,1.6,1.469,,,,,,,,,,
,,,,,,,,ANT_images/center.png,ANT_images/cong_r.png,0.25,i,1.4,0.1,1.9,minute,2020-09-30_14h48.17.372,ANT,2020.1.3,MacIntel,60,,,,,,0,0,27,27,15,1,0.3,,,,,,,,,,,
,,,,,,,,ANT_images/double.png,ANT_images/neu_r.png,-0.25,i,0.7,0.1,1.2,minute,2020-09-30_14h48.17.372,ANT,2020.1.3,MacIntel,60,,,,,,0,0,28,28,31,1,1,,,,,,,,,,,
,,,,,,,,ANT_images/center.png,ANT_images/neu_l.png,0.25,e,1.1,0.1,1.6,minute,2020-09-30_14h48.17.372,ANT,2020.1.3,MacIntel,60,,,,,,0,0,29,29,12,1,0.6,,,,,,,,,,,
,,,,,,,,ANT_images/none.png,ANT_images/neu_r.png,-0.25,i,0.1,0,0.5,minute,2020-09-30_14h48.17.372,ANT,2020.1.3,MacIntel,60,,,,,i,1,0,30,30,7,1,1.6,1.368,,,,,,,,,,
,,,,,,,,ANT_images/none.png,ANT_images/incong_l.png,-0.25,e,0.1,0,0.5,minute,2020-09-30_14h48.17.372,ANT,2020.1.3,MacIntel,60,,,,,e,1,0,31,31,10,1,1.6,1.558,,,,,,,,,,
,,,,,,,,ANT_images/center.png,ANT_images/incong_l.png,-0.25,e,1.3,0.1,1.8,minute,2020-09-30_14h48.17.372,ANT,2020.1.3,MacIntel,60,,,,,,0,0,32,32,22,1,0.4,,,,,,,,,,,
,,,,,,,,ANT_images/down.png,ANT_images/cong_l.png,-0.25,e,1.2,0.1,1.7,minute,2020-09-30_14h48.17.372,ANT,2020.1.3,MacIntel,60,,,,,,0,0,33,33,44,1,0.5,,,,,,,,,,,
,,,,,,,,ANT_images/center.png,ANT_images/incong_r.png,0.25,i,0.4,0.1,0.9,minute,2020-09-30_14h48.17.372,ANT,2020.1.3,MacIntel,60,,,,,,0,0,34,34,17,1,1.3,,,,,,,,,,,
,,,,,,,,ANT_images/center.png,ANT_images/incong_r.png,-0.25,i,0.9,0.1,1.4,minute,2020-09-30_14h48.17.372,ANT,2020.1.3,MacIntel,60,,,,,,0,0,35,35,23,1,0.8,,,,,,,,,,,
,,,,,,,,ANT_images/down.png,ANT_images/incong_l.png,-0.25,e,1.3,0.1,1.8,minute,2020-09-30_14h48.17.372,ANT,2020.1.3,MacIntel,60,,,,,,0,0,36,36,46,1,0.4,,,,,,,,,,,
,,,,,,,,ANT_images/up.png,ANT_images/cong_r.png,0.25,i,1.4,0.1,1.9,minute,2020-09-30_14h48.17.372,ANT,2020.1.3,MacIntel,60,,,,,,0,0,37,37,39,1,0.3,,,,,,,,,,,
,,,,,,,,ANT_images/double.png,ANT_images/incong_r.png,-0.25,i,1.6,0.1,2.1,minute,2020-09-30_14h48.17.372,ANT,2020.1.3,MacIntel,60,,,,,,0,0,38,38,35,1,0.1,,,,,,,,,,,
,,,,,,,,ANT_images/none.png,ANT_images/neu_l.png,-0.25,e,0.1,0,0.5,minute,2020-09-30_14h48.17.372,ANT,2020.1.3,MacIntel,60,,,,,e,1,0,39,39,6,1,1.6,1.47,,,,,,,,,,
,,,,,,,,ANT_images/down.png,ANT_images/cong_r.png,-0.25,i,0.4,0.1,0.9,minute,2020-09-30_14h48.17.372,ANT,2020.1.3,MacIntel,60,,,,,i,1,0,40,40,45,1,1.3,1.618,,,,,,,,,,
,,,,,,,,ANT_images/none.png,ANT_images/cong_r.png,-0.25,i,0.1,0,0.5,minute,2020-09-30_14h48.17.372,ANT,2020.1.3,MacIntel,60,,,,,i,1,0,41,41,9,1,1.6,1.313,,,,,,,,,,
,,,,,,,,ANT_images/double.png,ANT_images/neu_r.png,0.25,i,1.2,0.1,1.7,minute,2020-09-30_14h48.17.372,ANT,2020.1.3,MacIntel,60,,,,,,0,0,42,42,25,1,0.5,,,,,,,,,,,
,,,,,,,,ANT_images/center.png,ANT_images/neu_r.png,0.25,i,1,0.1,1.5,minute,2020-09-30_14h48.17.372,ANT,2020.1.3,MacIntel,60,,,,,,0,0,43,43,13,1,0.7,,,,,,,,,,,
,,,,,,,,ANT_images/double.png,ANT_images/incong_r.png,0.25,i,0.9,0.1,1.4,minute,2020-09-30_14h48.17.372,ANT,2020.1.3,MacIntel,60,,,,,,0,0,44,44,29,1,0.8,,,,,,,,,,,
,,,,,,,,ANT_images/double.png,ANT_images/cong_r.png,0.25,i,1.3,0.1,1.8,minute,2020-09-30_14h48.17.372,ANT,2020.1.3,MacIntel,60,,,,,,0,0,45,45,27,1,0.4,,,,,,,,,,,
,,,,,,,,ANT_images/none.png,ANT_images/incong_l.png,0.25,e,0.1,0,0.5,minute,2020-09-30_14h48.17.372,ANT,2020.1.3,MacIntel,60,,,,,e,1,0,46,46,4,1,1.6,1.323,,,,,,,,,,
,,,,,,,,ANT_images/none.png,ANT_images/cong_r.png,0.25,i,0.1,0,0.5,minute,2020-09-30_14h48.17.372,ANT,2020.1.3,MacIntel,60,,,,,i,1,0,47,47,3,1,1.6,1.188,,,,,,,,,,
,,,,,,,,ANT_images/double.png,ANT_images/incong_l.png,0.25,e,1,0.1,1.5,minute,2020-09-30_14h48.17.372,ANT,2020.1.3,MacIntel,60,,,,,,0,1,0,48,28,1,0.7,,,,,,,,,,,
,,,,,,,,ANT_images/double.png,ANT_images/incong_l.png,-0.25,e,1.5,0.1,2,minute,2020-09-30_14h48.17.372,ANT,2020.1.3,MacIntel,60,,,,,,0,1,1,49,34,1,0.2,,,,,,,,,,,
,,,,,,,,ANT_images/none.png,ANT_images/cong_l.png,0.25,e,0.1,0,0.5,minute,2020-09-30_14h48.17.372,ANT,2020.1.3,MacIntel,60,,,,,e,1,1,2,50,2,1,1.6,1.304,,,,,,,,,,
,,,,,,,,ANT_images/center.png,ANT_images/neu_l.png,-0.25,e,0.8,0.1,1.3,minute,2020-09-30_14h48.17.372,ANT,2020.1.3,MacIntel,60,,,,,,0,1,3,51,18,1,0.9,,,,,,,,,,,
,,,,,,,,ANT_images/double.png,ANT_images/incong_r.png,0.25,i,0.9,0.1,1.4,minute,2020-09-30_14h48.17.372,ANT,2020.1.3,MacIntel,60,,,,,,0,1,4,52,29,1,0.8,,,,,,,,,,,
,,,,,,,,ANT_images/double.png,ANT_images/incong_r.png,-0.25,i,1.6,0.1,2.1,minute,2020-09-30_14h48.17.372,ANT,2020.1.3,MacIntel,60,,,,,,0,1,5,53,35,1,0.1,,,,,,,,,,,
,,,,,,,,ANT_images/double.png,ANT_images/cong_r.png,-0.25,i,1.1,0.1,1.6,minute,2020-09-30_14h48.17.372,ANT,2020.1.3,MacIntel,60,,,,,,0,1,6,54,33,1,0.6,,,,,,,,,,,
,,,,,,,,ANT_images/up.png,ANT_images/neu_l.png,0.25,e,1.4,0.1,1.9,minute,2020-09-30_14h48.17.372,ANT,2020.1.3,MacIntel,60,,,,,,0,1,7,55,36,1,0.3,,,,,,,,,,,
,,,,,,,,ANT_images/down.png,ANT_images/cong_l.png,-0.25,e,1.2,0.1,1.7,minute,2020-09-30_14h48.17.372,ANT,2020.1.3,MacIntel,60,,,,,,0,1,8,56,44,1,0.5,,,,,,,,,,,
,,,,,,,,ANT_images/double.png,ANT_images/neu_l.png,-0.25,e,0.5,0.1,1,minute,2020-09-30_14h48.17.372,ANT,2020.1.3,MacIntel,60,,,,,e,1,1,9,57,30,1,1.2,1.668,,,,,,,,,,
,,,,,,,,ANT_images/up.png,ANT_images/incong_r.png,0.25,i,0.9,0.1,1.4,minute,2020-09-30_14h48.17.372,ANT,2020.1.3,MacIntel,60,,,,,,0,1,10,58,41,1,0.8,,,,,,,,,,,
,,,,,,,,ANT_images/none.png,ANT_images/incong_l.png,-0.25,e,0.1,0,0.5,minute,2020-09-30_14h48.17.372,ANT,2020.1.3,MacIntel,60,,,,,e,1,1,11,59,10,1,1.6,1.089,,,,,,,,,,
,,,,,,,,ANT_images/center.png,ANT_images/incong_r.png,0.25,i,0.4,0.1,0.9,minute,2020-09-30_14h48.17.372,ANT,2020.1.3,MacIntel,60,,,,,i,1,1,12,60,17,1,1.3,1.626,,,,,,,,,,
,,,,,,,,ANT_images/none.png,ANT_images/cong_r.png,-0.25,i,0.1,0,0.5,minute,2020-09-30_14h48.17.372,ANT,2020.1.3,MacIntel,60,,,,,i,1,1,13,61,9,1,1.6,1.393,,,,,,,,,,
,,,,,,,,ANT_images/none.png,ANT_images/incong_r.png,-0.25,i,0.1,0,0.5,minute,2020-09-30_14h48.17.372,ANT,2020.1.3,MacIntel,60,,,,,i,1,1,14,62,11,1,1.6,1.376,,,,,,,,,,
,,,,,,,,ANT_images/down.png,ANT_images/incong_l.png,-0.25,e,1.3,0.1,1.8,minute,2020-09-30_14h48.17.372,ANT,2020.1.3,MacIntel,60,,,,,,0,1,15,63,46,1,0.4,,,,,,,,,,,
,,,,,,,,ANT_images/none.png,ANT_images/incong_r.png,0.25,i,0.1,0,0.5,minute,2020-09-30_14h48.17.372,ANT,2020.1.3,MacIntel,60,,,,,i,1,1,16,64,5,1,1.6,1.237,,,,,,,,,,
,,,,,,,,ANT_images/double.png,ANT_images/cong_l.png,0.25,e,0.6,0.1,1.1,minute,2020-09-30_14h48.17.372,ANT,2020.1.3,MacIntel,60,,,,,,0,1,17,65,26,1,1.1,,,,,,,,,,,
,,,,,,,,ANT_images/down.png,ANT_images/incong_r.png,-0.25,i,1,0.1,1.5,minute,2020-09-30_14h48.17.372,ANT,2020.1.3,MacIntel,60,,,,,,0,1,18,66,47,1,0.7,,,,,,,,,,,
,,,,,,,,ANT_images/none.png,ANT_images/neu_r.png,0.25,i,0.1,0,0.5,minute,2020-09-30_14h48.17.372,ANT,2020.1.3,MacIntel,60,,,,,i,1,1,19,67,1,1,1.6,1.139,,,,,,,,,,
,,,,,,,,ANT_images/double.png,ANT_images/neu_l.png,0.25,e,0.6,0.1,1.1,minute,2020-09-30_14h48.17.372,ANT,2020.1.3,MacIntel,60,,,,,,0,1,20,68,24,1,1.1,,,,,,,,,,,
,,,,,,,,ANT_images/up.png,ANT_images/cong_r.png,0.25,i,1.4,0.1,1.9,minute,2020-09-30_14h48.17.372,ANT,2020.1.3,MacIntel,60,,,,,,0,1,21,69,39,1,0.3,,,,,,,,,,,
,,,,,,,,ANT_images/none.png,ANT_images/incong_l.png,0.25,e,0.1,0,0.5,minute,2020-09-30_14h48.17.372,ANT,2020.1.3,MacIntel,60,,,,,e,1,1,22,70,4,1,1.6,1.403,,,,,,,,,,
,,,,,,,,ANT_images/none.png,ANT_images/cong_r.png,0.25,i,0.1,0,0.5,minute,2020-09-30_14h48.17.372,ANT,2020.1.3,MacIntel,60,,,,,i,1,1,23,71,3,1,1.6,1.072,,,,,,,,,,
,,,,,,,,ANT_images/center.png,ANT_images/cong_l.png,0.25,e,1.2,0.1,1.7,minute,2020-09-30_14h48.17.372,ANT,2020.1.3,MacIntel,60,,,,,,0,1,24,72,14,1,0.5,,,,,,,,,,,
,,,,,,,,ANT_images/center.png,ANT_images/cong_r.png,-0.25,i,1.6,0.1,2.1,minute,2020-09-30_14h48.17.372,ANT,2020.1.3,MacIntel,60,,,,,,0,1,25,73,21,1,0.1,,,,,,,,,,,
,,,,,,,,ANT_images/double.png,ANT_images/cong_l.png,-0.25,e,0.4,0.1,0.9,minute,2020-09-30_14h48.17.372,ANT,2020.1.3,MacIntel,60,,,,,e,1,1,26,74,32,1,1.3,1.639,,,,,,,,,,
,,,,,,,,ANT_images/center.png,ANT_images/neu_r.png,-0.25,i,0.7,0.1,1.2,minute,2020-09-30_14h48.17.372,ANT,2020.1.3,MacIntel,60,,,,,,0,1,27,75,19,1,1,,,,,,,,,,,
,,,,,,,,ANT_images/none.png,ANT_images/neu_r.png,-0.25,i,0.1,0,0.5,minute,2020-09-30_14h48.17.372,ANT,2020.1.3,MacIntel,60,,,,,i,1,1,28,76,7,1,1.6,1.227,,,,,,,,,,
,,,,,,,,ANT_images/double.png,ANT_images/neu_r.png,0.25,i,1.2,0.1,1.7,minute,2020-09-30_14h48.17.372,ANT,2020.1.3,MacIntel,60,,,,,,0,1,29,77,25,1,0.5,,,,,,,,,,,
,,,,,,,,ANT_images/center.png,ANT_images/incong_l.png,0.25,e,0.5,0.1,1,minute,2020-09-30_14h48.17.372,ANT,2020.1.3,MacIntel,60,,,,,,0,1,30,78,16,1,1.2,,,,,,,,,,,
,,,,,,,,ANT_images/up.png,ANT_images/incong_l.png,0.25,e,0.5,0.1,1,minute,2020-09-30_14h48.17.372,ANT,2020.1.3,MacIntel,60,,,,,,0,1,31,79,40,1,1.2,,,,,,,,,,,
,,,,,,,,ANT_images/double.png,ANT_images/cong_r.png,0.25,i,1.3,0.1,1.8,minute,2020-09-30_14h48.17.372,ANT,2020.1.3,MacIntel,60,,,,,,0,1,32,80,27,1,0.4,,,,,,,,,,,
,,,,,,,,ANT_images/down.png,ANT_images/neu_l.png,-0.25,e,0.8,0.1,1.3,minute,2020-09-30_14h48.17.372,ANT,2020.1.3,MacIntel,60,,,,,,0,1,33,81,42,1,0.9,,,,,,,,,,,
,,,,,,,,ANT_images/center.png,ANT_images/neu_l.png,0.25,e,1.1,0.1,1.6,minute,2020-09-30_14h48.17.372,ANT,2020.1.3,MacIntel,60,,,,,,0,1,34,82,12,1,0.6,,,,,,,,,,,
,,,,,,,,ANT_images/up.png,ANT_images/cong_l.png,0.25,e,1.5,0.1,2,minute,2020-09-30_14h48.17.372,ANT,2020.1.3,MacIntel,60,,,,,,0,1,35,83,38,1,0.2,,,,,,,,,,,
,,,,,,,,ANT_images/up.png,ANT_images/neu_r.png,0.25,i,0.8,0.1,1.3,minute,2020-09-30_14h48.17.372,ANT,2020.1.3,MacIntel,60,,,,,,0,1,36,84,37,1,0.9,,,,,,,,,,,
,,,,,,,,ANT_images/none.png,ANT_images/cong_l.png,-0.25,e,0.1,0,0.5,minute,2020-09-30_14h48.17.372,ANT,2020.1.3,MacIntel,60,,,,,e,1,1,37,85,8,1,1.6,1.495,,,,,,,,,,
,,,,,,,,ANT_images/down.png,ANT_images/cong_r.png,-0.25,i,0.4,0.1,0.9,minute,2020-09-30_14h48.17.372,ANT,2020.1.3,MacIntel,60,,,,,i,1,1,38,86,45,1,1.3,1.626,,,,,,,,,,
,,,,,,,,ANT_images/center.png,ANT_images/incong_l.png,-0.25,e,1.3,0.1,1.8,minute,2020-09-30_14h48.17.372,ANT,2020.1.3,MacIntel,60,,,,,,0,1,39,87,22,1,0.4,,,,,,,,,,,
,,,,,,,,ANT_images/down.png,ANT_images/neu_r.png,-0.25,i,0.6,0.1,1.1,minute,2020-09-30_14h48.17.372,ANT,2020.1.3,MacIntel,60,,,,,,0,1,40,88,43,1,1.1,,,,,,,,,,,
,,,,,,,,ANT_images/center.png,ANT_images/cong_l.png,-0.25,e,1.5,0.1,2,minute,2020-09-30_14h48.17.372,ANT,2020.1.3,MacIntel,60,,,,,,0,1,41,89,20,1,0.2,,,,,,,,,,,
,,,,,,,,ANT_images/center.png,ANT_images/incong_r.png,-0.25,i,0.9,0.1,1.4,minute,2020-09-30_14h48.17.372,ANT,2020.1.3,MacIntel,60,,,,,,0,1,42,90,23,1,0.8,,,,,,,,,,,
,,,,,,,,ANT_images/center.png,ANT_images/neu_r.png,0.25,i,1,0.1,1.5,minute,2020-09-30_14h48.17.372,ANT,2020.1.3,MacIntel,60,,,,,,0,1,43,91,13,1,0.7,,,,,,,,,,,
,,,,,,,,ANT_images/double.png,ANT_images/neu_r.png,-0.25,i,0.7,0.1,1.2,minute,2020-09-30_14h48.17.372,ANT,2020.1.3,MacIntel,60,,,,,,0,1,44,92,31,1,1,,,,,,,,,,,
,,,,,,,,ANT_images/none.png,ANT_images/neu_l.png,0.25,e,0.1,0,0.5,minute,2020-09-30_14h48.17.372,ANT,2020.1.3,MacIntel,60,,,,,e,1,1,45,93,0,1,1.6,1.519,,,,,,,,,,
,,,,,,,,ANT_images/center.png,ANT_images/cong_r.png,0.25,i,1.4,0.1,1.9,minute,2020-09-30_14h48.17.372,ANT,2020.1.3,MacIntel,60,,,,,,0,1,46,94,15,1,0.3,,,,,,,,,,,
,,,,,,,,ANT_images/none.png,ANT_images/neu_l.png,-0.25,e,0.1,0,0.5,minute,2020-09-30_14h48.17.372,ANT,2020.1.3,MacIntel,60,,,,,e,1,1,47,95,6,1,1.6,1.191,,,,,,,,,,
,,,,,,,,,,,,,,,minute,2020-09-30_14h48.17.372,ANT,2020.1.3,MacIntel,60,,,,,,,,,,,,,,0,0,0,0,1,,,,,
,,,,,,,,ANT_images/center.png,ANT_images/cong_l.png,-0.25,e,1.5,0.1,2,minute,2020-09-30_14h48.17.372,ANT,2020.1.3,MacIntel,60,,,,,,0,0,0,0,20,1,0.2,,,,,,,,,,,
,,,,,,,,ANT_images/down.png,ANT_images/neu_r.png,-0.25,i,0.6,0.1,1.1,minute,2020-09-30_14h48.17.372,ANT,2020.1.3,MacIntel,60,,,,,,0,0,1,1,43,1,1.1,,,,,,,,,,,
,,,,,,,,ANT_images/double.png,ANT_images/neu_r.png,0.25,i,1.2,0.1,1.7,minute,2020-09-30_14h48.17.372,ANT,2020.1.3,MacIntel,60,,,,,,0,0,2,2,25,1,0.5,,,,,,,,,,,
,,,,,,,,ANT_images/none.png,ANT_images/neu_r.png,-0.25,i,0.1,0,0.5,minute,2020-09-30_14h48.17.372,ANT,2020.1.3,MacIntel,60,,,,,i,1,0,3,3,7,1,1.6,1.294,,,,,,,,,,
,,,,,,,,ANT_images/down.png,ANT_images/cong_r.png,-0.25,i,0.4,0.1,0.9,minute,2020-09-30_14h48.17.372,ANT,2020.1.3,MacIntel,60,,,,,i,1,0,4,4,45,1,1.3,1.618,,,,,,,,,,
,,,,,,,,ANT_images/none.png,ANT_images/neu_l.png,-0.25,e,0.1,0,0.5,minute,2020-09-30_14h48.17.372,ANT,2020.1.3,MacIntel,60,,,,,e,1,0,5,5,6,1,1.6,1.289,,,,,,,,,,
,,,,,,,,ANT_images/center.png,ANT_images/incong_r.png,-0.25,i,0.9,0.1,1.4,minute,2020-09-30_14h48.17.372,ANT,2020.1.3,MacIntel,60,,,,,,0,0,6,6,23,1,0.8,,,,,,,,,,,
,,,,,,,,ANT_images/center.png,ANT_images/neu_r.png,-0.25,i,0.7,0.1,1.2,minute,2020-09-30_14h48.17.372,ANT,2020.1.3,MacIntel,60,,,,,,0,0,7,7,19,1,1,,,,,,,,,,,
,,,,,,,,ANT_images/down.png,ANT_images/incong_r.png,-0.25,i,1,0.1,1.5,minute,2020-09-30_14h48.17.372,ANT,2020.1.3,MacIntel,60,,,,,,0,0,8,8,47,1,0.7,,,,,,,,,,,
,,,,,,,,ANT_images/double.png,ANT_images/neu_r.png,-0.25,i,0.7,0.1,1.2,minute,2020-09-30_14h48.17.372,ANT,2020.1.3,MacIntel,60,,,,,,0,0,9,9,31,1,1,,,,,,,,,,,
,,,,,,,,ANT_images/none.png,ANT_images/incong_r.png,-0.25,i,0.1,0,0.5,minute,2020-09-30_14h48.17.372,ANT,2020.1.3,MacIntel,60,,,,,i,1,0,10,10,11,1,1.6,1.388,,,,,,,,,,
,,,,,,,,ANT_images/double.png,ANT_images/incong_l.png,-0.25,e,1.5,0.1,2,minute,2020-09-30_14h48.17.372,ANT,2020.1.3,MacIntel,60,,,,,,0,0,11,11,34,1,0.2,,,,,,,,,,,
,,,,,,,,ANT_images/center.png,ANT_images/neu_r.png,0.25,i,1,0.1,1.5,minute,2020-09-30_14h48.17.372,ANT,2020.1.3,MacIntel,60,,,,,,0,0,12,12,13,1,0.7,,,,,,,,,,,
,,,,,,,,ANT_images/none.png,ANT_images/incong_l.png,-0.25,e,0.1,0,0.5,minute,2020-09-30_14h48.17.372,ANT,2020.1.3,MacIntel,60,,,,,e,1,0,13,13,10,1,1.6,1.243,,,,,,,,,,
,,,,,,,,ANT_images/double.png,ANT_images/cong_l.png,-0.25,e,0.4,0.1,0.9,minute,2020-09-30_14h48.17.372,ANT,2020.1.3,MacIntel,60,,,,,e,1,0,14,14,32,1,1.3,1.593,,,,,,,,,,
,,,,,,,,ANT_images/double.png,ANT_images/neu_l.png,0.25,e,0.6,0.1,1.1,minute,2020-09-30_14h48.17.372,ANT,2020.1.3,MacIntel,60,,,,,,0,0,15,15,24,1,1.1,,,,,,,,,,,
,,,,,,,,ANT_images/center.png,ANT_images/cong_l.png,0.25,e,1.2,0.1,1.7,minute,2020-09-30_14h48.17.372,ANT,2020.1.3,MacIntel,60,,,,,,0,0,16,16,14,1,0.5,,,,,,,,,,,
,,,,,,,,ANT_images/none.png,ANT_images/neu_l.png,0.25,e,0.1,0,0.5,minute,2020-09-30_14h48.17.372,ANT,2020.1.3,MacIntel,60,,,,,e,1,0,17,17,0,1,1.6,1.31,,,,,,,,,,
,,,,,,,,ANT_images/center.png,ANT_images/cong_r.png,-0.25,i,1.6,0.1,2.1,minute,2020-09-30_14h48.17.372,ANT,2020.1.3,MacIntel,60,,,,,,0,0,18,18,21,1,0.1,,,,,,,,,,,
,,,,,,,,ANT_images/double.png,ANT_images/incong_r.png,0.25,i,0.9,0.1,1.4,minute,2020-09-30_14h48.17.372,ANT,2020.1.3,MacIntel,60,,,,,,0,0,19,19,29,1,0.8,,,,,,,,,,,
,,,,,,,,ANT_images/down.png,ANT_images/incong_l.png,-0.25,e,1.3,0.1,1.8,minute,2020-09-30_14h48.17.372,ANT,2020.1.3,MacIntel,60,,,,,,0,0,20,20,46,1,0.4,,,,,,,,,,,
,,,,,,,,ANT_images/double.png,ANT_images/cong_r.png,-0.25,i,1.1,0.1,1.6,minute,2020-09-30_14h48.17.372,ANT,2020.1.3,MacIntel,60,,,,,,0,0,21,21,33,1,0.6,,,,,,,,,,,
,,,,,,,,ANT_images/center.png,ANT_images/neu_l.png,-0.25,e,0.8,0.1,1.3,minute,2020-09-30_14h48.17.372,ANT,2020.1.3,MacIntel,60,,,,,,0,0,22,22,18,1,0.9,,,,,,,,,,,
,,,,,,,,ANT_images/none.png,ANT_images/cong_l.png,-0.25,e,0.1,0,0.5,minute,2020-09-30_14h48.17.372,ANT,2020.1.3,MacIntel,60,,,,,e,1,0,23,23,8,1,1.6,1.21,,,,,,,,,,
,,,,,,,,ANT_images/up.png,ANT_images/neu_r.png,0.25,i,0.8,0.1,1.3,minute,2020-09-30_14h48.17.372,ANT,2020.1.3,MacIntel,60,,,,,,0,0,24,24,37,1,0.9,,,,,,,,,,,
,,,,,,,,ANT_images/center.png,ANT_images/incong_r.png,0.25,i,0.4,0.1,0.9,minute,2020-09-30_14h48.17.372,ANT,2020.1.3,MacIntel,60,,,,,,0,0,25,25,17,1,1.3,,,,,,,,,,,
,,,,,,,,ANT_images/none.png,ANT_images/cong_r.png,-0.25,i,0.1,0,0.5,minute,2020-09-30_14h48.17.372,ANT,2020.1.3,MacIntel,60,,,,,i,1,0,26,26,9,1,1.6,1.26,,,,,,,,,,
,,,,,,,,ANT_images/none.png,ANT_images/cong_l.png,0.25,e,0.1,0,0.5,minute,2020-09-30_14h48.17.372,ANT,2020.1.3,MacIntel,60,,,,,e,1,0,27,27,2,1,1.6,1.288,,,,,,,,,,
,,,,,,,,ANT_images/none.png,ANT_images/cong_r.png,0.25,i,0.1,0,0.5,minute,2020-09-30_14h48.17.372,ANT,2020.1.3,MacIntel,60,,,,,i,1,0,28,28,3,1,1.6,1.29,,,,,,,,,,
,,,,,,,,ANT_images/center.png,ANT_images/incong_l.png,-0.25,e,1.3,0.1,1.8,minute,2020-09-30_14h48.17.372,ANT,2020.1.3,MacIntel,60,,,,,,0,0,29,29,22,1,0.4,,,,,,,,,,,
,,,,,,,,ANT_images/none.png,ANT_images/incong_l.png,0.25,e,0.1,0,0.5,minute,2020-09-30_14h48.17.372,ANT,2020.1.3,MacIntel,60,,,,,e,1,0,30,30,4,1,1.6,1.17,,,,,,,,,,
,,,,,,,,ANT_images/none.png,ANT_images/neu_r.png,0.25,i,0.1,0,0.5,minute,2020-09-30_14h48.17.372,ANT,2020.1.3,MacIntel,60,,,,,i,1,0,31,31,1,1,1.6,1.11,,,,,,,,,,
,,,,,,,,ANT_images/double.png,ANT_images/neu_l.png,-0.25,e,0.5,0.1,1,minute,2020-09-30_14h48.17.372,ANT,2020.1.3,MacIntel,60,,,,,,0,0,32,32,30,1,1.2,,,,,,,,,,,
,,,,,,,,ANT_images/up.png,ANT_images/cong_l.png,0.25,e,1.5,0.1,2,minute,2020-09-30_14h48.17.372,ANT,2020.1.3,MacIntel,60,,,,,,0,0,33,33,38,1,0.2,,,,,,,,,,,
,,,,,,,,ANT_images/up.png,ANT_images/incong_l.png,0.25,e,0.5,0.1,1,minute,2020-09-30_14h48.17.372,ANT,2020.1.3,MacIntel,60,,,,,e,1,0,34,34,40,1,1.2,1.669,,,,,,,,,,
,,,,,,,,ANT_images/up.png,ANT_images/incong_r.png,0.25,i,0.9,0.1,1.4,minute,2020-09-30_14h48.17.372,ANT,2020.1.3,MacIntel,60,,,,,,0,0,35,35,41,1,0.8,,,,,,,,,,,
,,,,,,,,ANT_images/double.png,ANT_images/cong_r.png,0.25,i,1.3,0.1,1.8,minute,2020-09-30_14h48.17.372,ANT,2020.1.3,MacIntel,60,,,,,,0,0,36,36,27,1,0.4,,,,,,,,,,,
,,,,,,,,ANT_images/double.png,ANT_images/incong_r.png,-0.25,i,1.6,0.1,2.1,minute,2020-09-30_14h48.17.372,ANT,2020.1.3,MacIntel,60,,,,,,0,0,37,37,35,1,0.1,,,,,,,,,,,
,,,,,,,,ANT_images/center.png,ANT_images/incong_l.png,0.25,e,0.5,0.1,1,minute,2020-09-30_14h48.17.372,ANT,2020.1.3,MacIntel,60,,,,,,0,0,38,38,16,1,1.2,,,,,,,,,,,
,,,,,,,,ANT_images/none.png,ANT_images/incong_r.png,0.25,i,0.1,0,0.5,minute,2020-09-30_14h48.17.372,ANT,2020.1.3,MacIntel,60,,,,,i,1,0,39,39,5,1,1.6,1.368,,,,,,,,,,
,,,,,,,,ANT_images/up.png,ANT_images/neu_l.png,0.25,e,1.4,0.1,1.9,minute,2020-09-30_14h48.17.372,ANT,2020.1.3,MacIntel,60,,,,,,0,0,40,40,36,1,0.3,,,,,,,,,,,
,,,,,,,,ANT_images/up.png,ANT_images/cong_r.png,0.25,i,1.4,0.1,1.9,minute,2020-09-30_14h48.17.372,ANT,2020.1.3,MacIntel,60,,,,,,0,0,41,41,39,1,0.3,,,,,,,,,,,
,,,,,,,,ANT_images/down.png,ANT_images/cong_l.png,-0.25,e,1.2,0.1,1.7,minute,2020-09-30_14h48.17.372,ANT,2020.1.3,MacIntel,60,,,,,,0,0,42,42,44,1,0.5,,,,,,,,,,,
,,,,,,,,ANT_images/double.png,ANT_images/incong_l.png,0.25,e,1,0.1,1.5,minute,2020-09-30_14h48.17.372,ANT,2020.1.3,MacIntel,60,,,,,,0,0,43,43,28,1,0.7,,,,,,,,,,,
,,,,,,,,ANT_images/center.png,ANT_images/neu_l.png,0.25,e,1.1,0.1,1.6,minute,2020-09-30_14h48.17.372,ANT,2020.1.3,MacIntel,60,,,,,,0,0,44,44,12,1,0.6,,,,,,,,,,,
,,,,,,,,ANT_images/double.png,ANT_images/cong_l.png,0.25,e,0.6,0.1,1.1,minute,2020-09-30_14h48.17.372,ANT,2020.1.3,MacIntel,60,,,,,,0,0,45,45,26,1,1.1,,,,,,,,,,,
,,,,,,,,ANT_images/center.png,ANT_images/cong_r.png,0.25,i,1.4,0.1,1.9,minute,2020-09-30_14h48.17.372,ANT,2020.1.3,MacIntel,60,,,,,,0,0,46,46,15,1,0.3,,,,,,,,,,,
,,,,,,,,ANT_images/down.png,ANT_images/neu_l.png,-0.25,e,0.8,0.1,1.3,minute,2020-09-30_14h48.17.372,ANT,2020.1.3,MacIntel,60,,,,,,0,0,47,47,42,1,0.9,,,,,,,,,,,
,,,,,,,,ANT_images/double.png,ANT_images/neu_l.png,-0.25,e,0.5,0.1,1,minute,2020-09-30_14h48.17.372,ANT,2020.1.3,MacIntel,60,,,,,,0,1,0,48,30,1,1.2,,,,,,,,,,,
,,,,,,,,ANT_images/center.png,ANT_images/neu_r.png,-0.25,i,0.7,0.1,1.2,minute,2020-09-30_14h48.17.372,ANT,2020.1.3,MacIntel,60,,,,,,0,1,1,49,19,1,1,,,,,,,,,,,
,,,,,,,,ANT_images/double.png,ANT_images/cong_r.png,0.25,i,1.3,0.1,1.8,minute,2020-09-30_14h48.17.372,ANT,2020.1.3,MacIntel,60,,,,,,0,1,2,50,27,1,0.4,,,,,,,,,,,
,,,,,,,,ANT_images/up.png,ANT_images/cong_r.png,0.25,i,1.4,0.1,1.9,minute,2020-09-30_14h48.17.372,ANT,2020.1.3,MacIntel,60,,,,,,0,1,3,51,39,1,0.3,,,,,,,,,,,
,,,,,,,,ANT_images/up.png,ANT_images/neu_l.png,0.25,e,1.4,0.1,1.9,minute,2020-09-30_14h48.17.372,ANT,2020.1.3,MacIntel,60,,,,,,0,1,4,52,36,1,0.3,,,,,,,,,,,
,,,,,,,,ANT_images/double.png,ANT_images/incong_r.png,-0.25,i,1.6,0.1,2.1,minute,2020-09-30_14h48.17.372,ANT,2020.1.3,MacIntel,60,,,,,,0,1,5,53,35,1,0.1,,,,,,,,,,,
,,,,,,,,ANT_images/center.png,ANT_images/incong_r.png,0.25,i,0.4,0.1,0.9,minute,2020-09-30_14h48.17.372,ANT,2020.1.3,MacIntel,60,,,,,i,1,1,6,54,17,1,1.3,1.666,,,,,,,,,,
,,,,,,,,ANT_images/none.png,ANT_images/neu_l.png,-0.25,e,0.1,0,0.5,minute,2020-09-30_14h48.17.372,ANT,2020.1.3,MacIntel,60,,,,,e,1,1,7,55,6,1,1.6,1.129,,,,,,,,,,
,,,,,,,,ANT_images/none.png,ANT_images/cong_r.png,-0.25,i,0.1,0,0.5,minute,2020-09-30_14h48.17.372,ANT,2020.1.3,MacIntel,60,,,,,i,1,1,8,56,9,1,1.6,1.296,,,,,,,,,,
,,,,,,,,ANT_images/up.png,ANT_images/neu_r.png,0.25,i,0.8,0.1,1.3,minute,2020-09-30_14h48.17.372,ANT,2020.1.3,MacIntel,60,,,,,,0,1,9,57,37,1,0.9,,,,,,,,,,,
,,,,,,,,ANT_images/up.png,ANT_images/incong_r.png,0.25,i,0.9,0.1,1.4,minute,2020-09-30_14h48.17.372,ANT,2020.1.3,MacIntel,60,,,,,,0,1,10,58,41,1,0.8,,,,,,,,,,,
,,,,,,,,ANT_images/center.png,ANT_images/cong_l.png,0.25,e,1.2,0.1,1.7,minute,2020-09-30_14h48.17.372,ANT,2020.1.3,MacIntel,60,,,,,,0,1,11,59,14,1,0.5,,,,,,,,,,,
,,,,,,,,ANT_images/none.png,ANT_images/neu_r.png,0.25,i,0.1,0,0.5,minute,2020-09-30_14h48.17.372,ANT,2020.1.3,MacIntel,60,,,,,i,1,1,12,60,1,1,1.6,1.106,,,,,,,,,,
,,,,,,,,ANT_images/none.png,ANT_images/neu_r.png,-0.25,i,0.1,0,0.5,minute,2020-09-30_14h48.17.372,ANT,2020.1.3,MacIntel,60,,,,,i,1,1,13,61,7,1,1.6,1.302,,,,,,,,,,
,,,,,,,,ANT_images/center.png,ANT_images/cong_r.png,0.25,i,1.4,0.1,1.9,minute,2020-09-30_14h48.17.372,ANT,2020.1.3,MacIntel,60,,,,,,0,1,14,62,15,1,0.3,,,,,,,,,,,
,,,,,,,,ANT_images/double.png,ANT_images/cong_r.png,-0.25,i,1.1,0.1,1.6,minute,2020-09-30_14h48.17.372,ANT,2020.1.3,MacIntel,60,,,,,,0,1,15,63,33,1,0.6,,,,,,,,,,,
,,,,,,,,ANT_images/none.png,ANT_images/cong_l.png,-0.25,e,0.1,0,0.5,minute,2020-09-30_14h48.17.372,ANT,2020.1.3,MacIntel,60,,,,,e,1,1,16,64,8,1,1.6,1.429,,,,,,,,,,
,,,,,,,,ANT_images/double.png,ANT_images/neu_l.png,0.25,e,0.6,0.1,1.1,minute,2020-09-30_14h48.17.372,ANT,2020.1.3,MacIntel,60,,,,,,0,1,17,65,24,1,1.1,,,,,,,,,,,
,,,,,,,,ANT_images/double.png,ANT_images/neu_r.png,-0.25,i,0.7,0.1,1.2,minute,2020-09-30_14h48.17.372,ANT,2020.1.3,MacIntel,60,,,,,,0,1,18,66,31,1,1,,,,,,,,,,,
,,,,,,,,ANT_images/double.png,ANT_images/cong_l.png,-0.25,e,0.4,0.1,0.9,minute,2020-09-30_14h48.17.372,ANT,2020.1.3,MacIntel,60,,,,,e,1,1,19,67,32,1,1.3,1.658,,,,,,,,,,
,,,,,,,,ANT_images/up.png,ANT_images/incong_l.png,0.25,e,0.5,0.1,1,minute,2020-09-30_14h48.17.372,ANT,2020.1.3,MacIntel,60,,,,,,0,1,20,68,40,1,1.2,,,,,,,,,,,
,,,,,,,,ANT_images/center.png,ANT_images/cong_l.png,-0.25,e,1.5,0.1,2,minute,2020-09-30_14h48.17.372,ANT,2020.1.3,MacIntel,60,,,,,,0,1,21,69,20,1,0.2,,,,,,,,,,,
,,,,,,,,ANT_images/none.png,ANT_images/incong_r.png,0.25,i,0.1,0,0.5,minute,2020-09-30_14h48.17.372,ANT,2020.1.3,MacIntel,60,,,,,i,1,1,22,70,5,1,1.6,1.207,,,,,,,,,,
,,,,,,,,ANT_images/down.png,ANT_images/neu_l.png,-0.25,e,0.8,0.1,1.3,minute,2020-09-30_14h48.17.372,ANT,2020.1.3,MacIntel,60,,,,,,0,1,23,71,42,1,0.9,,,,,,,,,,,
,,,,,,,,ANT_images/down.png,ANT_images/cong_r.png,-0.25,i,0.4,0.1,0.9,minute,2020-09-30_14h48.17.372,ANT,2020.1.3,MacIntel,60,,,,,,0,1,24,72,45,1,1.3,,,,,,,,,,,
,,,,,,,,ANT_images/none.png,ANT_images/incong_l.png,0.25,e,0.1,0,0.5,minute,2020-09-30_14h48.17.372,ANT,2020.1.3,MacIntel,60,,,,,e,1,1,25,73,4,1,1.6,1.362,,,,,,,,,,
,,,,,,,,ANT_images/center.png,ANT_images/neu_r.png,0.25,i,1,0.1,1.5,minute,2020-09-30_14h48.17.372,ANT,2020.1.3,MacIntel,60,,,,,,0,1,26,74,13,1,0.7,,,,,,,,,,,
,,,,,,,,ANT_images/center.png,ANT_images/cong_r.png,-0.25,i,1.6,0.1,2.1,minute,2020-09-30_14h48.17.372,ANT,2020.1.3,MacIntel,60,,,,,,0,1,27,75,21,1,0.1,,,,,,,,,,,
,,,,,,,,ANT_images/none.png,ANT_images/incong_l.png,-0.25,e,0.1,0,0.5,minute,2020-09-30_14h48.17.372,ANT,2020.1.3,MacIntel,60,,,,,e,1,1,28,76,10,1,1.6,1.341,,,,,,,,,,
,,,,,,,,ANT_images/center.png,ANT_images/incong_l.png,0.25,e,0.5,0.1,1,minute,2020-09-30_14h48.17.372,ANT,2020.1.3,MacIntel,60,,,,,i,0,1,29,77,16,1,1.2,1.58,,,,,,,,,,
,,,,,,,,ANT_images/double.png,ANT_images/incong_l.png,0.25,e,1,0.1,1.5,minute,2020-09-30_14h48.17.372,ANT,2020.1.3,MacIntel,60,,,,,,0,1,30,78,28,1,0.7,,,,,,,,,,,
,,,,,,,,ANT_images/none.png,ANT_images/incong_r.png,-0.25,i,0.1,0,0.5,minute,2020-09-30_14h48.17.372,ANT,2020.1.3,MacIntel,60,,,,,i,1,1,31,79,11,1,1.6,1.577,,,,,,,,,,
,,,,,,,,ANT_images/double.png,ANT_images/incong_l.png,-0.25,e,1.5,0.1,2,minute,2020-09-30_14h48.17.372,ANT,2020.1.3,MacIntel,60,,,,,,0,1,32,80,34,1,0.2,,,,,,,,,,,
,,,,,,,,ANT_images/down.png,ANT_images/neu_r.png,-0.25,i,0.6,0.1,1.1,minute,2020-09-30_14h48.17.372,ANT,2020.1.3,MacIntel,60,,,,,,0,1,33,81,43,1,1.1,,,,,,,,,,,
,,,,,,,,ANT_images/none.png,ANT_images/neu_l.png,0.25,e,0.1,0,0.5,minute,2020-09-30_14h48.17.372,ANT,2020.1.3,MacIntel,60,,,,,e,1,1,34,82,0,1,1.6,1.11,,,,,,,,,,
,,,,,,,,ANT_images/center.png,ANT_images/neu_l.png,-0.25,e,0.8,0.1,1.3,minute,2020-09-30_14h48.17.372,ANT,2020.1.3,MacIntel,60,,,,,,0,1,35,83,18,1,0.9,,,,,,,,,,,
,,,,,,,,ANT_images/center.png,ANT_images/incong_l.png,-0.25,e,1.3,0.1,1.8,minute,2020-09-30_14h48.17.372,ANT,2020.1.3,MacIntel,60,,,,,,0,1,36,84,22,1,0.4,,,,,,,,,,,
,,,,,,,,ANT_images/double.png,ANT_images/neu_r.png,0.25,i,1.2,0.1,1.7,minute,2020-09-30_14h48.17.372,ANT,2020.1.3,MacIntel,60,,,,,,0,1,37,85,25,1,0.5,,,,,,,,,,,
,,,,,,,,ANT_images/center.png,ANT_images/neu_l.png,0.25,e,1.1,0.1,1.6,minute,2020-09-30_14h48.17.372,ANT,2020.1.3,MacIntel,60,,,,,,0,1,38,86,12,1,0.6,,,,,,,,,,,
,,,,,,,,ANT_images/down.png,ANT_images/incong_r.png,-0.25,i,1,0.1,1.5,minute,2020-09-30_14h48.17.372,ANT,2020.1.3,MacIntel,60,,,,,,0,1,39,87,47,1,0.7,,,,,,,,,,,
,,,,,,,,ANT_images/center.png,ANT_images/incong_r.png,-0.25,i,0.9,0.1,1.4,minute,2020-09-30_14h48.17.372,ANT,2020.1.3,MacIntel,60,,,,,,0,1,40,88,23,1,0.8,,,,,,,,,,,
,,,,,,,,ANT_images/none.png,ANT_images/cong_r.png,0.25,i,0.1,0,0.5,minute,2020-09-30_14h48.17.372,ANT,2020.1.3,MacIntel,60,,,,,i,1,1,41,89,3,1,1.6,1.405,,,,,,,,,,
,,,,,,,,ANT_images/none.png,ANT_images/cong_l.png,0.25,e,0.1,0,0.5,minute,2020-09-30_14h48.17.372,ANT,2020.1.3,MacIntel,60,,,,,e,1,1,42,90,2,1,1.6,1.301,,,,,,,,,,
,,,,,,,,ANT_images/double.png,ANT_images/incong_r.png,0.25,i,0.9,0.1,1.4,minute,2020-09-30_14h48.17.372,ANT,2020.1.3,MacIntel,60,,,,,,0,1,43,91,29,1,0.8,,,,,,,,,,,
,,,,,,,,ANT_images/double.png,ANT_images/cong_l.png,0.25,e,0.6,0.1,1.1,minute,2020-09-30_14h48.17.372,ANT,2020.1.3,MacIntel,60,,,,,,0,1,44,92,26,1,1.1,,,,,,,,,,,
,,,,,,,,ANT_images/down.png,ANT_images/incong_l.png,-0.25,e,1.3,0.1,1.8,minute,2020-09-30_14h48.17.372,ANT,2020.1.3,MacIntel,60,,,,,,0,1,45,93,46,1,0.4,,,,,,,,,,,
,,,,,,,,ANT_images/up.png,ANT_images/cong_l.png,0.25,e,1.5,0.1,2,minute,2020-09-30_14h48.17.372,ANT,2020.1.3,MacIntel,60,,,,,,0,1,46,94,38,1,0.2,,,,,,,,,,,
,,,,,,,,ANT_images/down.png,ANT_images/cong_l.png,-0.25,e,1.2,0.1,1.7,minute,2020-09-30_14h48.17.372,ANT,2020.1.3,MacIntel,60,,,,,,0,1,47,95,44,1,0.5,,,,,,,,,,,
,,,,,,,,ANT_images/double.png,ANT_images/neu_l.png,0.25,e,0.6,0.1,1.1,minute,2020-09-30_14h48.17.372,ANT,2020.1.3,MacIntel,60,,,,,,0,,,,,,1.1,,,,,,,0,0,0,24,1
,,,,,,,,ANT_images/center.png,ANT_images/neu_r.png,0.25,i,1,0.1,1.5,minute,2020-09-30_14h48.17.372,ANT,2020.1.3,MacIntel,60,,,,,,0,,,,,,0.7,,,,,,,0,1,1,13,1
,,,,,,,,ANT_images/center.png,ANT_images/incong_r.png,-0.25,i,0.9,0.1,1.4,minute,2020-09-30_14h48.17.372,ANT,2020.1.3,MacIntel,60,,,,,,0,,,,,,0.8,,,,,,,0,2,2,23,1
,,,,,,,,ANT_images/down.png,ANT_images/neu_r.png,-0.25,i,0.6,0.1,1.1,minute,2020-09-30_14h48.17.372,ANT,2020.1.3,MacIntel,60,,,,,,0,,,,,,1.1,,,,,,,0,3,3,43,1
,,,,,,,,ANT_images/center.png,ANT_images/neu_l.png,-0.25,e,0.8,0.1,1.3,minute,2020-09-30_14h48.17.372,ANT,2020.1.3,MacIntel,60,,,,,,0,,,,,,0.9,,,,,,,0,4,4,18,1
,,,,,,,,ANT_images/none.png,ANT_images/cong_r.png,0.25,i,0.1,0,0.5,minute,2020-09-30_14h48.17.372,ANT,2020.1.3,MacIntel,60,,,,,i,1,,,,,,1.6,1.17,,,,,,0,5,5,3,1
,,,,,,,,ANT_images/none.png,ANT_images/neu_r.png,-0.25,i,0.1,0,0.5,minute,2020-09-30_14h48.17.372,ANT,2020.1.3,MacIntel,60,,,,,i,1,,,,,,1.6,1.103,,,,,,0,6,6,7,1
,,,,,,,,ANT_images/none.png,ANT_images/incong_l.png,0.25,e,0.1,0,0.5,minute,2020-09-30_14h48.17.372,ANT,2020.1.3,MacIntel,60,,,,,e,1,,,,,,1.6,1.473,,,,,,0,7,7,4,1
,,,,,,,,ANT_images/double.png,ANT_images/neu_r.png,-0.25,i,0.7,0.1,1.2,minute,2020-09-30_14h48.17.372,ANT,2020.1.3,MacIntel,60,,,,,,0,,,,,,1,,,,,,,0,8,8,31,1
,,,,,,,,ANT_images/center.png,ANT_images/incong_l.png,0.25,e,0.5,0.1,1,minute,2020-09-30_14h48.17.372,ANT,2020.1.3,MacIntel,60,,,,,,0,,,,,,1.2,,,,,,,0,9,9,16,1
,,,,,,,,ANT_images/none.png,ANT_images/incong_l.png,-0.25,e,0.1,0,0.5,minute,2020-09-30_14h48.17.372,ANT,2020.1.3,MacIntel,60,,,,,e,1,,,,,,1.6,1.451,,,,,,0,10,10,10,1
,,,,,,,,ANT_images/up.png,ANT_images/cong_r.png,0.25,i,1.4,0.1,1.9,minute,2020-09-30_14h48.17.372,ANT,2020.1.3,MacIntel,60,,,,,,0,,,,,,0.3,,,,,,,0,11,11,39,1
,,,,,,,,ANT_images/center.png,ANT_images/incong_r.png,0.25,i,0.4,0.1,0.9,minute,2020-09-30_14h48.17.372,ANT,2020.1.3,MacIntel,60,,,,,,0,,,,,,1.3,,,,,,,0,12,12,17,1
,,,,,,,,ANT_images/none.png,ANT_images/incong_r.png,0.25,i,0.1,0,0.5,minute,2020-09-30_14h48.17.372,ANT,2020.1.3,MacIntel,60,,,,,i,1,,,,,,1.6,1.244,,,,,,0,13,13,5,1
,,,,,,,,ANT_images/up.png,ANT_images/neu_r.png,0.25,i,0.8,0.1,1.3,minute,2020-09-30_14h48.17.372,ANT,2020.1.3,MacIntel,60,,,,,,0,,,,,,0.9,,,,,,,0,14,14,37,1
,,,,,,,,ANT_images/none.png,ANT_images/neu_r.png,0.25,i,0.1,0,0.5,minute,2020-09-30_14h48.17.372,ANT,2020.1.3,MacIntel,60,,,,,i,1,,,,,,1.6,1.206,,,,,,0,15,15,1,1
,,,,,,,,ANT_images/none.png,ANT_images/cong_l.png,-0.25,e,0.1,0,0.5,minute,2020-09-30_14h48.17.372,ANT,2020.1.3,MacIntel,60,,,,,e,1,,,,,,1.6,1.354,,,,,,0,16,16,8,1
,,,,,,,,ANT_images/center.png,ANT_images/neu_l.png,0.25,e,1.1,0.1,1.6,minute,2020-09-30_14h48.17.372,ANT,2020.1.3,MacIntel,60,,,,,,0,,,,,,0.6,,,,,,,0,17,17,12,1
,,,,,,,,ANT_images/up.png,ANT_images/cong_l.png,0.25,e,1.5,0.1,2,minute,2020-09-30_14h48.17.372,ANT,2020.1.3,MacIntel,60,,,,,,0,,,,,,0.2,,,,,,,0,18,18,38,1
,,,,,,,,ANT_images/center.png,ANT_images/cong_l.png,0.25,e,1.2,0.1,1.7,minute,2020-09-30_14h48.17.372,ANT,2020.1.3,MacIntel,60,,,,,,0,,,,,,0.5,,,,,,,0,19,19,14,1
,,,,,,,,ANT_images/double.png,ANT_images/neu_l.png,-0.25,e,0.5,0.1,1,minute,2020-09-30_14h48.17.372,ANT,2020.1.3,MacIntel,60,,,,,,0,,,,,,1.2,,,,,,,0,20,20,30,1
,,,,,,,,ANT_images/up.png,ANT_images/incong_r.png,0.25,i,0.9,0.1,1.4,minute,2020-09-30_14h48.17.372,ANT,2020.1.3,MacIntel,60,,,,,,0,,,,,,0.8,,,,,,,0,21,21,41,1
,,,,,,,,ANT_images/double.png,ANT_images/neu_r.png,0.25,i,1.2,0.1,1.7,minute,2020-09-30_14h48.17.372,ANT,2020.1.3,MacIntel,60,,,,,,0,,,,,,0.5,,,,,,,0,22,22,25,1
,,,,,,,,ANT_images/down.png,ANT_images/cong_l.png,-0.25,e,1.2,0.1,1.7,minute,2020-09-30_14h48.17.372,ANT,2020.1.3,MacIntel,60,,,,,,0,,,,,,0.5,,,,,,,0,23,23,44,1
,,,,,,,,ANT_images/center.png,ANT_images/neu_r.png,-0.25,i,0.7,0.1,1.2,minute,2020-09-30_14h48.17.372,ANT,2020.1.3,MacIntel,60,,,,,,0,,,,,,1,,,,,,,0,24,24,19,1
,,,,,,,,ANT_images/double.png,ANT_images/cong_l.png,-0.25,e,0.4,0.1,0.9,minute,2020-09-30_14h48.17.372,ANT,2020.1.3,MacIntel,60,,,,,e,1,,,,,,1.3,1.651,,,,,,0,25,25,32,1
,,,,,,,,ANT_images/center.png,ANT_images/cong_r.png,0.25,i,1.4,0.1,1.9,minute,2020-09-30_14h48.17.372,ANT,2020.1.3,MacIntel,60,,,,,,0,,,,,,0.3,,,,,,,0,26,26,15,1
,,,,,,,,ANT_images/down.png,ANT_images/incong_l.png,-0.25,e,1.3,0.1,1.8,minute,2020-09-30_14h48.17.372,ANT,2020.1.3,MacIntel,60,,,,,,0,,,,,,0.4,,,,,,,0,27,27,46,1
,,,,,,,,ANT_images/down.png,ANT_images/cong_r.png,-0.25,i,0.4,0.1,0.9,minute,2020-09-30_14h48.17.372,ANT,2020.1.3,MacIntel,60,,,,,i,1,,,,,,1.3,1.479,,,,,,0,28,28,45,1
,,,,,,,,ANT_images/up.png,ANT_images/neu_l.png,0.25,e,1.4,0.1,1.9,minute,2020-09-30_14h48.17.372,ANT,2020.1.3,MacIntel,60,,,,,,0,,,,,,0.3,,,,,,,0,29,29,36,1
,,,,,,,,ANT_images/double.png,ANT_images/cong_r.png,0.25,i,1.3,0.1,1.8,minute,2020-09-30_14h48.17.372,ANT,2020.1.3,MacIntel,60,,,,,,0,,,,,,0.4,,,,,,,0,30,30,27,1
,,,,,,,,ANT_images/none.png,ANT_images/incong_r.png,-0.25,i,0.1,0,0.5,minute,2020-09-30_14h48.17.372,ANT,2020.1.3,MacIntel,60,,,,,i,1,,,,,,1.6,1.467,,,,,,0,31,31,11,1
,,,,,,,,ANT_images/none.png,ANT_images/cong_r.png,-0.25,i,0.1,0,0.5,minute,2020-09-30_14h48.17.372,ANT,2020.1.3,MacIntel,60,,,,,i,1,,,,,,1.6,1.302,,,,,,0,32,32,9,1
,,,,,,,,ANT_images/double.png,ANT_images/cong_r.png,-0.25,i,1.1,0.1,1.6,minute,2020-09-30_14h48.17.372,ANT,2020.1.3,MacIntel,60,,,,,,0,,,,,,0.6,,,,,,,0,33,33,33,1
,,,,,,,,ANT_images/center.png,ANT_images/cong_r.png,-0.25,i,1.6,0.1,2.1,minute,2020-09-30_14h48.17.372,ANT,2020.1.3,MacIntel,60,,,,,,0,,,,,,0.1,,,,,,,0,34,34,21,1
,,,,,,,,ANT_images/none.png,ANT_images/cong_l.png,0.25,e,0.1,0,0.5,minute,2020-09-30_14h48.17.372,ANT,2020.1.3,MacIntel,60,,,,,e,1,,,,,,1.6,1.112,,,,,,0,35,35,2,1
,,,,,,,,ANT_images/none.png,ANT_images/neu_l.png,0.25,e,0.1,0,0.5,minute,2020-09-30_14h48.17.372,ANT,2020.1.3,MacIntel,60,,,,,e,1,,,,,,1.6,1.097,,,,,,0,36,36,0,1
,,,,,,,,ANT_images/double.png,ANT_images/incong_r.png,-0.25,i,1.6,0.1,2.1,minute,2020-09-30_14h48.17.372,ANT,2020.1.3,MacIntel,60,,,,,,0,,,,,,0.1,,,,,,,0,37,37,35,1
,,,,,,,,ANT_images/down.png,ANT_images/incong_r.png,-0.25,i,1,0.1,1.5,minute,2020-09-30_14h48.17.372,ANT,2020.1.3,MacIntel,60,,,,,,0,,,,,,0.7,,,,,,,0,38,38,47,1
,,,,,,,,ANT_images/double.png,ANT_images/cong_l.png,0.25,e,0.6,0.1,1.1,minute,2020-09-30_14h48.17.372,ANT,2020.1.3,MacIntel,60,,,,,,0,,,,,,1.1,,,,,,,0,39,39,26,1
,,,,,,,,ANT_images/center.png,ANT_images/cong_l.png,-0.25,e,1.5,0.1,2,minute,2020-09-30_14h48.17.372,ANT,2020.1.3,MacIntel,60,,,,,,0,,,,,,0.2,,,,,,,0,40,40,20,1
,,,,,,,,ANT_images/double.png,ANT_images/incong_l.png,-0.25,e,1.5,0.1,2,minute,2020-09-30_14h48.17.372,ANT,2020.1.3,MacIntel,60,,,,,,0,,,,,,0.2,,,,,,,0,41,41,34,1
,,,,,,,,ANT_images/none.png,ANT_images/neu_l.png,-0.25,e,0.1,0,0.5,minute,2020-09-30_14h48.17.372,ANT,2020.1.3,MacIntel,60,,,,,e,1,,,,,,1.6,1.276,,,,,,0,42,42,6,1
,,,,,,,,ANT_images/double.png,ANT_images/incong_r.png,0.25,i,0.9,0.1,1.4,minute,2020-09-30_14h48.17.372,ANT,2020.1.3,MacIntel,60,,,,,,0,,,,,,0.8,,,,,,,0,43,43,29,1
,,,,,,,,ANT_images/up.png,ANT_images/incong_l.png,0.25,e,0.5,0.1,1,minute,2020-09-30_14h48.17.372,ANT,2020.1.3,MacIntel,60,,,,,e,1,,,,,,1.2,1.608,,,,,,0,44,44,40,1
,,,,,,,,ANT_images/center.png,ANT_images/incong_l.png,-0.25,e,1.3,0.1,1.8,minute,2020-09-30_14h48.17.372,ANT,2020.1.3,MacIntel,60,,,,,,0,,,,,,0.4,,,,,,,0,45,45,22,1
,,,,,,,,ANT_images/double.png,ANT_images/incong_l.png,0.25,e,1,0.1,1.5,minute,2020-09-30_14h48.17.372,ANT,2020.1.3,MacIntel,60,,,,,,0,,,,,,0.7,,,,,,,0,46,46,28,1
,,,,,,,,ANT_images/down.png,ANT_images/neu_l.png,-0.25,e,0.8,0.1,1.3,minute,2020-09-30_14h48.17.372,ANT,2020.1.3,MacIntel,60,,,,,,0,,,,,,0.9,,,,,,,0,47,47,42,1
,,,,,,,,ANT_images/none.png,ANT_images/incong_l.png,0.25,e,0.1,0,0.5,minute,2020-09-30_14h48.17.372,ANT,2020.1.3,MacIntel,60,,,,,e,1,,,,,,1.6,1.262,,,,,,1,0,48,4,1
,,,,,,,,ANT_images/double.png,ANT_images/incong_l.png,-0.25,e,1.5,0.1,2,minute,2020-09-30_14h48.17.372,ANT,2020.1.3,MacIntel,60,,,,,,0,,,,,,0.2,,,,,,,1,1,49,34,1
,,,,,,,,ANT_images/double.png,ANT_images/incong_l.png,0.25,e,1,0.1,1.5,minute,2020-09-30_14h48.17.372,ANT,2020.1.3,MacIntel,60,,,,,,0,,,,,,0.7,,,,,,,1,2,50,28,1
,,,,,,,,ANT_images/down.png,ANT_images/incong_l.png,-0.25,e,1.3,0.1,1.8,minute,2020-09-30_14h48.17.372,ANT,2020.1.3,MacIntel,60,,,,,,0,,,,,,0.4,,,,,,,1,3,51,46,1
,,,,,,,,ANT_images/double.png,ANT_images/cong_l.png,-0.25,e,0.4,0.1,0.9,minute,2020-09-30_14h48.17.372,ANT,2020.1.3,MacIntel,60,,,,,e,1,,,,,,1.3,1.511,,,,,,1,4,52,32,1
,,,,,,,,ANT_images/double.png,ANT_images/incong_r.png,0.25,i,0.9,0.1,1.4,minute,2020-09-30_14h48.17.372,ANT,2020.1.3,MacIntel,60,,,,,,0,,,,,,0.8,,,,,,,1,5,53,29,1
,,,,,,,,ANT_images/double.png,ANT_images/neu_r.png,0.25,i,1.2,0.1,1.7,minute,2020-09-30_14h48.17.372,ANT,2020.1.3,MacIntel,60,,,,,,0,,,,,,0.5,,,,,,,1,6,54,25,1
,,,,,,,,ANT_images/up.png,ANT_images/neu_l.png,0.25,e,1.4,0.1,1.9,minute,2020-09-30_14h48.17.372,ANT,2020.1.3,MacIntel,60,,,,,,0,,,,,,0.3,,,,,,,1,7,55,36,1
,,,,,,,,ANT_images/up.png,ANT_images/incong_l.png,0.25,e,0.5,0.1,1,minute,2020-09-30_14h48.17.372,ANT,2020.1.3,MacIntel,60,,,,,,0,,,,,,1.2,,,,,,,1,8,56,40,1
,,,,,,,,ANT_images/double.png,ANT_images/neu_l.png,-0.25,e,0.5,0.1,1,minute,2020-09-30_14h48.17.372,ANT,2020.1.3,MacIntel,60,,,,,,0,,,,,,1.2,,,,,,,1,9,57,30,1
,,,,,,,,ANT_images/double.png,ANT_images/cong_r.png,-0.25,i,1.1,0.1,1.6,minute,2020-09-30_14h48.17.372,ANT,2020.1.3,MacIntel,60,,,,,,0,,,,,,0.6,,,,,,,1,10,58,33,1
,,,,,,,,ANT_images/center.png,ANT_images/cong_r.png,0.25,i,1.4,0.1,1.9,minute,2020-09-30_14h48.17.372,ANT,2020.1.3,MacIntel,60,,,,,,0,,,,,,0.3,,,,,,,1,11,59,15,1
,,,,,,,,ANT_images/down.png,ANT_images/cong_r.png,-0.25,i,0.4,0.1,0.9,minute,2020-09-30_14h48.17.372,ANT,2020.1.3,MacIntel,60,,,,,i,1,,,,,,1.3,1.586,,,,,,1,12,60,45,1
,,,,,,,,ANT_images/center.png,ANT_images/neu_l.png,-0.25,e,0.8,0.1,1.3,minute,2020-09-30_14h48.17.372,ANT,2020.1.3,MacIntel,60,,,,,,0,,,,,,0.9,,,,,,,1,13,61,18,1
,,,,,,,,ANT_images/none.png,ANT_images/cong_r.png,-0.25,i,0.1,0,0.5,minute,2020-09-30_14h48.17.372,ANT,2020.1.3,MacIntel,60,,,,,i,1,,,,,,1.6,1.408,,,,,,1,14,62,9,1
,,,,,,,,ANT_images/center.png,ANT_images/incong_r.png,-0.25,i,0.9,0.1,1.4,minute,2020-09-30_14h48.17.372,ANT,2020.1.3,MacIntel,60,,,,,,0,,,,,,0.8,,,,,,,1,15,63,23,1
,,,,,,,,ANT_images/center.png,ANT_images/neu_r.png,0.25,i,1,0.1,1.5,minute,2020-09-30_14h48.17.372,ANT,2020.1.3,MacIntel,60,,,,,,0,,,,,,0.7,,,,,,,1,16,64,13,1
,,,,,,,,ANT_images/none.png,ANT_images/incong_r.png,0.25,i,0.1,0,0.5,minute,2020-09-30_14h48.17.372,ANT,2020.1.3,MacIntel,60,,,,,i,1,,,,,,1.6,1.403,,,,,,1,17,65,5,1
,,,,,,,,ANT_images/up.png,ANT_images/cong_r.png,0.25,i,1.4,0.1,1.9,minute,2020-09-30_14h48.17.372,ANT,2020.1.3,MacIntel,60,,,,,,0,,,,,,0.3,,,,,,,1,18,66,39,1
,,,,,,,,ANT_images/double.png,ANT_images/neu_r.png,-0.25,i,0.7,0.1,1.2,minute,2020-09-30_14h48.17.372,ANT,2020.1.3,MacIntel,60,,,,,,0,,,,,,1,,,,,,,1,19,67,31,1
,,,,,,,,ANT_images/double.png,ANT_images/incong_r.png,-0.25,i,1.6,0.1,2.1,minute,2020-09-30_14h48.17.372,ANT,2020.1.3,MacIntel,60,,,,,,0,,,,,,0.1,,,,,,,1,20,68,35,1
,,,,,,,,ANT_images/down.png,ANT_images/neu_l.png,-0.25,e,0.8,0.1,1.3,minute,2020-09-30_14h48.17.372,ANT,2020.1.3,MacIntel,60,,,,,,0,,,,,,0.9,,,,,,,1,21,69,42,1
,,,,,,,,ANT_images/none.png,ANT_images/cong_r.png,0.25,i,0.1,0,0.5,minute,2020-09-30_14h48.17.372,ANT,2020.1.3,MacIntel,60,,,,,i,1,,,,,,1.6,1.157,,,,,,1,22,70,3,1
,,,,,,,,ANT_images/none.png,ANT_images/neu_r.png,-0.25,i,0.1,0,0.5,minute,2020-09-30_14h48.17.372,ANT,2020.1.3,MacIntel,60,,,,,i,1,,,,,,1.6,1.119,,,,,,1,23,71,7,1
,,,,,,,,ANT_images/center.png,ANT_images/incong_r.png,0.25,i,0.4,0.1,0.9,minute,2020-09-30_14h48.17.372,ANT,2020.1.3,MacIntel,60,,,,,,0,,,,,,1.3,,,,,,,1,24,72,17,1
,,,,,,,,ANT_images/double.png,ANT_images/neu_l.png,0.25,e,0.6,0.1,1.1,minute,2020-09-30_14h48.17.372,ANT,2020.1.3,MacIntel,60,,,,,,0,,,,,,1.1,,,,,,,1,25,73,24,1
,,,,,,,,ANT_images/none.png,ANT_images/neu_l.png,-0.25,e,0.1,0,0.5,minute,2020-09-30_14h48.17.372,ANT,2020.1.3,MacIntel,60,,,,,e,1,,,,,,1.6,1.337,,,,,,1,26,74,6,1
,,,,,,,,ANT_images/none.png,ANT_images/neu_l.png,0.25,e,0.1,0,0.5,minute,2020-09-30_14h48.17.372,ANT,2020.1.3,MacIntel,60,,,,,e,1,,,,,,1.6,1.128,,,,,,1,27,75,0,1
,,,,,,,,ANT_images/none.png,ANT_images/cong_l.png,0.25,e,0.1,0,0.5,minute,2020-09-30_14h48.17.372,ANT,2020.1.3,MacIntel,60,,,,,e,1,,,,,,1.6,1.312,,,,,,1,28,76,2,1
,,,,,,,,ANT_images/up.png,ANT_images/cong_l.png,0.25,e,1.5,0.1,2,minute,2020-09-30_14h48.17.372,ANT,2020.1.3,MacIntel,60,,,,,,0,,,,,,0.2,,,,,,,1,29,77,38,1
,,,,,,,,ANT_images/up.png,ANT_images/neu_r.png,0.25,i,0.8,0.1,1.3,minute,2020-09-30_14h48.17.372,ANT,2020.1.3,MacIntel,60,,,,,,0,,,,,,0.9,,,,,,,1,30,78,37,1
,,,,,,,,ANT_images/center.png,ANT_images/neu_l.png,0.25,e,1.1,0.1,1.6,minute,2020-09-30_14h48.17.372,ANT,2020.1.3,MacIntel,60,,,,,,0,,,,,,0.6,,,,,,,1,31,79,12,1
,,,,,,,,ANT_images/double.png,ANT_images/cong_r.png,0.25,i,1.3,0.1,1.8,minute,2020-09-30_14h48.17.372,ANT,2020.1.3,MacIntel,60,,,,,,0,,,,,,0.4,,,,,,,1,32,80,27,1
,,,,,,,,ANT_images/center.png,ANT_images/cong_l.png,0.25,e,1.2,0.1,1.7,minute,2020-09-30_14h48.17.372,ANT,2020.1.3,MacIntel,60,,,,,,0,,,,,,0.5,,,,,,,1,33,81,14,1
,,,,,,,,ANT_images/down.png,ANT_images/cong_l.png,-0.25,e,1.2,0.1,1.7,minute,2020-09-30_14h48.17.372,ANT,2020.1.3,MacIntel,60,,,,,,0,,,,,,0.5,,,,,,,1,34,82,44,1
,,,,,,,,ANT_images/none.png,ANT_images/cong_l.png,-0.25,e,0.1,0,0.5,minute,2020-09-30_14h48.17.372,ANT,2020.1.3,MacIntel,60,,,,,e,1,,,,,,1.6,1.234,,,,,,1,35,83,8,1
,,,,,,,,ANT_images/down.png,ANT_images/incong_r.png,-0.25,i,1,0.1,1.5,minute,2020-09-30_14h48.17.372,ANT,2020.1.3,MacIntel,60,,,,,,0,,,,,,0.7,,,,,,,1,36,84,47,1
,,,,,,,,ANT_images/none.png,ANT_images/incong_r.png,-0.25,i,0.1,0,0.5,minute,2020-09-30_14h48.17.372,ANT,2020.1.3,MacIntel,60,,,,,i,1,,,,,,1.6,1.371,,,,,,1,37,85,11,1
,,,,,,,,ANT_images/center.png,ANT_images/neu_r.png,-0.25,i,0.7,0.1,1.2,minute,2020-09-30_14h48.17.372,ANT,2020.1.3,MacIntel,60,,,,,,0,,,,,,1,,,,,,,1,38,86,19,1
,,,,,,,,ANT_images/double.png,ANT_images/cong_l.png,0.25,e,0.6,0.1,1.1,minute,2020-09-30_14h48.17.372,ANT,2020.1.3,MacIntel,60,,,,,,0,,,,,,1.1,,,,,,,1,39,87,26,1
,,,,,,,,ANT_images/none.png,ANT_images/neu_r.png,0.25,i,0.1,0,0.5,minute,2020-09-30_14h48.17.372,ANT,2020.1.3,MacIntel,60,,,,,i,1,,,,,,1.6,1.095,,,,,,1,40,88,1,1
,,,,,,,,ANT_images/center.png,ANT_images/cong_l.png,-0.25,e,1.5,0.1,2,minute,2020-09-30_14h48.17.372,ANT,2020.1.3,MacIntel,60,,,,,,0,,,,,,0.2,,,,,,,1,41,89,20,1
,,,,,,,,ANT_images/center.png,ANT_images/cong_r.png,-0.25,i,1.6,0.1,2.1,minute,2020-09-30_14h48.17.372,ANT,2020.1.3,MacIntel,60,,,,,,0,,,,,,0.1,,,,,,,1,42,90,21,1
,,,,,,,,ANT_images/center.png,ANT_images/incong_l.png,-0.25,e,1.3,0.1,1.8,minute,2020-09-30_14h48.17.372,ANT,2020.1.3,MacIntel,60,,,,,,0,,,,,,0.4,,,,,,,1,43,91,22,1
,,,,,,,,ANT_images/center.png,ANT_images/incong_l.png,0.25,e,0.5,0.1,1,minute,2020-09-30_14h48.17.372,ANT,2020.1.3,MacIntel,60,,,,,,0,,,,,,1.2,,,,,,,1,44,92,16,1
,,,,,,,,ANT_images/up.png,ANT_images/incong_r.png,0.25,i,0.9,0.1,1.4,minute,2020-09-30_14h48.17.372,ANT,2020.1.3,MacIntel,60,,,,,,0,,,,,,0.8,,,,,,,1,45,93,41,1
,,,,,,,,ANT_images/down.png,ANT_images/neu_r.png,-0.25,i,0.6,0.1,1.1,minute,2020-09-30_14h48.17.372,ANT,2020.1.3,MacIntel,60,,,,,,0,,,,,,1.1,,,,,,,1,46,94,43,1
,,,,,,,,ANT_images/none.png,ANT_images/incong_l.png,-0.25,e,0.1,0,0.5,minute,2020-09-30_14h48.17.372,ANT,2020.1.3,MacIntel,60,,,,,e,1,,,,,,1.6,1.435,,,,,,1,47,95,10,1
