pract_resp.keys,pract_resp.corr,pract_resp.rt,practice.thisRepN,practice.thisTrialN,practice.thisN,practice.thisIndex,practice.ran,cue_file,flanker,pos,correct,fix1,cue_time,stimStart,participant,date,expName,psychopyVersion,OS,frameRate,key_resp_6.keys,key_resp_6.rt,key_resp_7.keys,key_resp_7.rt,response.keys,response.corr,response.rt,trials.thisRepN,trials.thisTrialN,trials.thisN,trials.thisIndex,trials.ran,postFix,trials_2.thisRepN,trials_2.thisTrialN,trials_2.thisN,trials_2.thisIndex,trials_2.ran,trials_3.thisRepN,trials_3.thisTrialN,trials_3.thisN,trials_3.thisIndex,trials_3.ran
e,1,0.98683,0,0,0,0,1,ANT_images/none.png,ANT_images/cong_l.png,-0.25,e,0.1,0,0.5,parent,2020-09-30_10h14.50.100,ANT,2020.1.3,Win32,60,,,,,,,,,,,,,,,,,,,,,,,
e,1,0.95888,0,1,1,18,1,ANT_images/down.png,ANT_images/cong_l.png,-0.25,e,1.2,0.1,1.7,parent,2020-09-30_10h14.50.100,ANT,2020.1.3,Win32,60,,,,,,,,,,,,,,,,,,,,,,,
i,1,1.255315,0,2,2,6,1,ANT_images/center.png,ANT_images/neu_r.png,0.25,i,1,0.1,1.5,parent,2020-09-30_10h14.50.100,ANT,2020.1.3,Win32,60,,,,,,,,,,,,,,,,,,,,,,,
i,1,0.684765,0,3,3,8,1,ANT_images/center.png,ANT_images/cong_r.png,0.25,i,1.4,0.1,1.9,parent,2020-09-30_10h14.50.100,ANT,2020.1.3,Win32,60,,,,,,,,,,,,,,,,,,,,,,,
i,1,1.145885,0,4,4,17,1,ANT_images/up.png,ANT_images/incong_r.png,0.25,i,0.9,0.1,1.4,parent,2020-09-30_10h14.50.100,ANT,2020.1.3,Win32,60,,,,,,,,,,,,,,,,,,,,,,,
e,1,0.69493,0,5,5,5,1,ANT_images/center.png,ANT_images/neu_l.png,-0.25,e,0.8,0.1,1.3,parent,2020-09-30_10h14.50.100,ANT,2020.1.3,Win32,60,,,,,,,,,,,,,,,,,,,,,,,
i,1,0.625615,0,6,6,14,1,ANT_images/double.png,ANT_images/neu_r.png,0.25,i,1.2,0.1,1.7,parent,2020-09-30_10h14.50.100,ANT,2020.1.3,Win32,60,,,,,,,,,,,,,,,,,,,,,,,
i,1,0.57818,0,7,7,21,1,ANT_images/none.png,ANT_images/neu_r.png,0.25,i,0.1,0,0.5,parent,2020-09-30_10h14.50.100,ANT,2020.1.3,Win32,60,,,,,,,,,,,,,,,,,,,,,,,
e,1,0.803675,0,8,8,22,1,ANT_images/center.png,ANT_images/incong_l.png,-0.25,e,1.3,0.1,1.8,parent,2020-09-30_10h14.50.100,ANT,2020.1.3,Win32,60,,,,,,,,,,,,,,,,,,,,,,,
e,1,0.75637,0,9,9,19,1,ANT_images/down.png,ANT_images/incong_l.png,-0.25,e,1.3,0.1,1.8,parent,2020-09-30_10h14.50.100,ANT,2020.1.3,Win32,60,,,,,,,,,,,,,,,,,,,,,,,
i,1,0.65984,0,10,10,13,1,ANT_images/double.png,ANT_images/cong_r.png,0.25,i,1.3,0.1,1.8,parent,2020-09-30_10h14.50.100,ANT,2020.1.3,Win32,60,,,,,,,,,,,,,,,,,,,,,,,
e,0,0.669765,0,11,11,3,1,ANT_images/none.png,ANT_images/cong_r.png,-0.25,i,0.1,0,0.5,parent,2020-09-30_10h14.50.100,ANT,2020.1.3,Win32,60,,,,,,,,,,,,,,,,,,,,,,,
e,1,0.67339,0,12,12,15,1,ANT_images/up.png,ANT_images/cong_l.png,0.25,e,1.5,0.1,2,parent,2020-09-30_10h14.50.100,ANT,2020.1.3,Win32,60,,,,,,,,,,,,,,,,,,,,,,,
e,1,0.558065,0,13,13,7,1,ANT_images/center.png,ANT_images/neu_l.png,0.25,e,1.1,0.1,1.6,parent,2020-09-30_10h14.50.100,ANT,2020.1.3,Win32,60,,,,,,,,,,,,,,,,,,,,,,,
i,1,0.83341,0,14,14,11,1,ANT_images/double.png,ANT_images/incong_r.png,-0.25,i,1.6,0.1,2.1,parent,2020-09-30_10h14.50.100,ANT,2020.1.3,Win32,60,,,,,,,,,,,,,,,,,,,,,,,
e,1,0.655965,0,15,15,2,1,ANT_images/none.png,ANT_images/cong_l.png,0.25,e,0.1,0,0.5,parent,2020-09-30_10h14.50.100,ANT,2020.1.3,Win32,60,,,,,,,,,,,,,,,,,,,,,,,
i,1,0.724825,0,16,16,20,1,ANT_images/down.png,ANT_images/incong_r.png,-0.25,i,1,0.1,1.5,parent,2020-09-30_10h14.50.100,ANT,2020.1.3,Win32,60,,,,,,,,,,,,,,,,,,,,,,,
e,1,0.636965,0,17,17,16,1,ANT_images/up.png,ANT_images/neu_l.png,0.25,e,1.4,0.1,1.9,parent,2020-09-30_10h14.50.100,ANT,2020.1.3,Win32,60,,,,,,,,,,,,,,,,,,,,,,,
i,1,0.65278,0,18,18,4,1,ANT_images/none.png,ANT_images/cong_r.png,0.25,i,0.1,0,0.5,parent,2020-09-30_10h14.50.100,ANT,2020.1.3,Win32,60,,,,,,,,,,,,,,,,,,,,,,,
i,1,0.603055,0,19,19,10,1,ANT_images/double.png,ANT_images/neu_r.png,-0.25,i,0.7,0.1,1.2,parent,2020-09-30_10h14.50.100,ANT,2020.1.3,Win32,60,,,,,,,,,,,,,,,,,,,,,,,
e,1,0.771265,0,20,20,12,1,ANT_images/double.png,ANT_images/incong_l.png,-0.25,e,1.5,0.1,2,parent,2020-09-30_10h14.50.100,ANT,2020.1.3,Win32,60,,,,,,,,,,,,,,,,,,,,,,,
i,1,0.65979,0,21,21,1,1,ANT_images/none.png,ANT_images/incong_r.png,0.25,i,0.1,0,0.5,parent,2020-09-30_10h14.50.100,ANT,2020.1.3,Win32,60,,,,,,,,,,,,,,,,,,,,,,,
i,1,0.67014,0,22,22,23,1,ANT_images/center.png,ANT_images/incong_r.png,0.25,i,0.4,0.1,0.9,parent,2020-09-30_10h14.50.100,ANT,2020.1.3,Win32,60,,,,,,,,,,,,,,,,,,,,,,,
i,1,0.634075,0,23,23,9,1,ANT_images/center.png,ANT_images/neu_r.png,0.25,i,1,0.1,1.5,parent,2020-09-30_10h14.50.100,ANT,2020.1.3,Win32,60,,,,,,,,,,,,,,,,,,,,,,,
,,,,,,,,ANT_images/down.png,ANT_images/cong_r.png,-0.25,i,0.4,0.1,0.9,parent,2020-09-30_10h14.50.100,ANT,2020.1.3,Win32,60,space,1.60847,space,2.93497,i,1,1.456185,0,0,0,45,1,1.3,,,,,,,,,,
,,,,,,,,ANT_images/double.png,ANT_images/cong_l.png,-0.25,e,0.4,0.1,0.9,parent,2020-09-30_10h14.50.100,ANT,2020.1.3,Win32,60,,,,,e,1,1.384665,0,1,1,32,1,1.3,,,,,,,,,,
,,,,,,,,ANT_images/up.png,ANT_images/cong_r.png,0.25,i,1.4,0.1,1.9,parent,2020-09-30_10h14.50.100,ANT,2020.1.3,Win32,60,,,,,,0,,0,2,2,39,1,0.3,,,,,,,,,,
,,,,,,,,ANT_images/double.png,ANT_images/cong_r.png,-0.25,i,1.1,0.1,1.6,parent,2020-09-30_10h14.50.100,ANT,2020.1.3,Win32,60,,,,,,0,,0,3,3,33,1,0.6,,,,,,,,,,
,,,,,,,,ANT_images/center.png,ANT_images/incong_l.png,0.25,e,0.5,0.1,1,parent,2020-09-30_10h14.50.100,ANT,2020.1.3,Win32,60,,,,,e,1,1.55817,0,4,4,16,1,1.2,,,,,,,,,,
,,,,,,,,ANT_images/center.png,ANT_images/incong_l.png,-0.25,e,1.3,0.1,1.8,parent,2020-09-30_10h14.50.100,ANT,2020.1.3,Win32,60,,,,,,0,,0,5,5,22,1,0.4,,,,,,,,,,
,,,,,,,,ANT_images/up.png,ANT_images/incong_r.png,0.25,i,0.9,0.1,1.4,parent,2020-09-30_10h14.50.100,ANT,2020.1.3,Win32,60,,,,,,0,,0,6,6,41,1,0.8,,,,,,,,,,
,,,,,,,,ANT_images/up.png,ANT_images/neu_r.png,0.25,i,0.8,0.1,1.3,parent,2020-09-30_10h14.50.100,ANT,2020.1.3,Win32,60,,,,,,0,,0,7,7,37,1,0.9,,,,,,,,,,
,,,,,,,,ANT_images/double.png,ANT_images/neu_l.png,-0.25,e,0.5,0.1,1,parent,2020-09-30_10h14.50.100,ANT,2020.1.3,Win32,60,,,,,e,1,1.46929,0,8,8,30,1,1.2,,,,,,,,,,
,,,,,,,,ANT_images/down.png,ANT_images/neu_l.png,-0.25,e,0.8,0.1,1.3,parent,2020-09-30_10h14.50.100,ANT,2020.1.3,Win32,60,,,,,,0,,0,9,9,42,1,0.9,,,,,,,,,,
,,,,,,,,ANT_images/double.png,ANT_images/incong_r.png,-0.25,i,1.6,0.1,2.1,parent,2020-09-30_10h14.50.100,ANT,2020.1.3,Win32,60,,,,,,0,,0,10,10,35,1,0.1,,,,,,,,,,
,,,,,,,,ANT_images/up.png,ANT_images/incong_l.png,0.25,e,0.5,0.1,1,parent,2020-09-30_10h14.50.100,ANT,2020.1.3,Win32,60,,,,,,0,,0,11,11,40,1,1.2,,,,,,,,,,
,,,,,,,,ANT_images/none.png,ANT_images/incong_l.png,-0.25,e,0.1,0,0.5,parent,2020-09-30_10h14.50.100,ANT,2020.1.3,Win32,60,,,,,e,1,1.084345,0,12,12,10,1,1.6,,,,,,,,,,
,,,,,,,,ANT_images/none.png,ANT_images/incong_r.png,0.25,i,0.1,0,0.5,parent,2020-09-30_10h14.50.100,ANT,2020.1.3,Win32,60,,,,,i,1,1.049405,0,13,13,5,1,1.6,,,,,,,,,,
,,,,,,,,ANT_images/double.png,ANT_images/neu_r.png,-0.25,i,0.7,0.1,1.2,parent,2020-09-30_10h14.50.100,ANT,2020.1.3,Win32,60,,,,,,0,,0,14,14,31,1,1,,,,,,,,,,
,,,,,,,,ANT_images/none.png,ANT_images/cong_l.png,-0.25,e,0.1,0,0.5,parent,2020-09-30_10h14.50.100,ANT,2020.1.3,Win32,60,,,,,e,1,0.935835,0,15,15,8,1,1.6,,,,,,,,,,
,,,,,,,,ANT_images/none.png,ANT_images/neu_l.png,0.25,e,0.1,0,0.5,parent,2020-09-30_10h14.50.100,ANT,2020.1.3,Win32,60,,,,,e,1,1.006605,0,16,16,0,1,1.6,,,,,,,,,,
,,,,,,,,ANT_images/center.png,ANT_images/cong_l.png,0.25,e,1.2,0.1,1.7,parent,2020-09-30_10h14.50.100,ANT,2020.1.3,Win32,60,,,,,,0,,0,17,17,14,1,0.5,,,,,,,,,,
,,,,,,,,ANT_images/none.png,ANT_images/cong_r.png,-0.25,i,0.1,0,0.5,parent,2020-09-30_10h14.50.100,ANT,2020.1.3,Win32,60,,,,,i,1,0.952305,0,18,18,9,1,1.6,,,,,,,,,,
,,,,,,,,ANT_images/center.png,ANT_images/neu_l.png,0.25,e,1.1,0.1,1.6,parent,2020-09-30_10h14.50.100,ANT,2020.1.3,Win32,60,,,,,,0,,0,19,19,12,1,0.6,,,,,,,,,,
,,,,,,,,ANT_images/up.png,ANT_images/neu_l.png,0.25,e,1.4,0.1,1.9,parent,2020-09-30_10h14.50.100,ANT,2020.1.3,Win32,60,,,,,,0,,0,20,20,36,1,0.3,,,,,,,,,,
,,,,,,,,ANT_images/center.png,ANT_images/incong_r.png,0.25,i,0.4,0.1,0.9,parent,2020-09-30_10h14.50.100,ANT,2020.1.3,Win32,60,,,,,i,1,1.35353,0,21,21,17,1,1.3,,,,,,,,,,
,,,,,,,,ANT_images/up.png,ANT_images/cong_l.png,0.25,e,1.5,0.1,2,parent,2020-09-30_10h14.50.100,ANT,2020.1.3,Win32,60,,,,,,0,,0,22,22,38,1,0.2,,,,,,,,,,
,,,,,,,,ANT_images/double.png,ANT_images/incong_r.png,0.25,i,0.9,0.1,1.4,parent,2020-09-30_10h14.50.100,ANT,2020.1.3,Win32,60,,,,,,0,,0,23,23,29,1,0.8,,,,,,,,,,
,,,,,,,,ANT_images/center.png,ANT_images/neu_l.png,-0.25,e,0.8,0.1,1.3,parent,2020-09-30_10h14.50.100,ANT,2020.1.3,Win32,60,,,,,,0,,0,24,24,18,1,0.9,,,,,,,,,,
,,,,,,,,ANT_images/double.png,ANT_images/neu_l.png,0.25,e,0.6,0.1,1.1,parent,2020-09-30_10h14.50.100,ANT,2020.1.3,Win32,60,,,,,e,1,1.54313,0,25,25,24,1,1.1,,,,,,,,,,
,,,,,,,,ANT_images/none.png,ANT_images/cong_l.png,0.25,e,0.1,0,0.5,parent,2020-09-30_10h14.50.100,ANT,2020.1.3,Win32,60,,,,,e,1,0.924,0,26,26,2,1,1.6,,,,,,,,,,
,,,,,,,,ANT_images/none.png,ANT_images/incong_l.png,0.25,e,0.1,0,0.5,parent,2020-09-30_10h14.50.100,ANT,2020.1.3,Win32,60,,,,,i,0,0.98652,0,27,27,4,1,1.6,,,,,,,,,,
,,,,,,,,ANT_images/double.png,ANT_images/cong_r.png,0.25,i,1.3,0.1,1.8,parent,2020-09-30_10h14.50.100,ANT,2020.1.3,Win32,60,,,,,,0,,0,28,28,27,1,0.4,,,,,,,,,,
,,,,,,,,ANT_images/none.png,ANT_images/neu_r.png,0.25,i,0.1,0,0.5,parent,2020-09-30_10h14.50.100,ANT,2020.1.3,Win32,60,,,,,i,1,0.93402,0,29,29,1,1,1.6,,,,,,,,,,
,,,,,,,,ANT_images/none.png,ANT_images/neu_r.png,-0.25,i,0.1,0,0.5,parent,2020-09-30_10h14.50.100,ANT,2020.1.3,Win32,60,,,,,e,0,0.97815,0,30,30,7,1,1.6,,,,,,,,,,
,,,,,,,,ANT_images/down.png,ANT_images/cong_l.png,-0.25,e,1.2,0.1,1.7,parent,2020-09-30_10h14.50.100,ANT,2020.1.3,Win32,60,,,,,,0,,0,31,31,44,1,0.5,,,,,,,,,,
,,,,,,,,ANT_images/center.png,ANT_images/neu_r.png,0.25,i,1,0.1,1.5,parent,2020-09-30_10h14.50.100,ANT,2020.1.3,Win32,60,,,,,,0,,0,32,32,13,1,0.7,,,,,,,,,,
,,,,,,,,ANT_images/none.png,ANT_images/incong_r.png,-0.25,i,0.1,0,0.5,parent,2020-09-30_10h14.50.100,ANT,2020.1.3,Win32,60,,,,,i,1,1.10825,0,33,33,11,1,1.6,,,,,,,,,,
,,,,,,,,ANT_images/double.png,ANT_images/cong_l.png,0.25,e,0.6,0.1,1.1,parent,2020-09-30_10h14.50.100,ANT,2020.1.3,Win32,60,,,,,e,1,1.5653,0,34,34,26,1,1.1,,,,,,,,,,
,,,,,,,,ANT_images/center.png,ANT_images/cong_l.png,-0.25,e,1.5,0.1,2,parent,2020-09-30_10h14.50.100,ANT,2020.1.3,Win32,60,,,,,,0,,0,35,35,20,1,0.2,,,,,,,,,,
,,,,,,,,ANT_images/center.png,ANT_images/cong_r.png,-0.25,i,1.6,0.1,2.1,parent,2020-09-30_10h14.50.100,ANT,2020.1.3,Win32,60,,,,,,0,,0,36,36,21,1,0.1,,,,,,,,,,
,,,,,,,,ANT_images/double.png,ANT_images/neu_r.png,0.25,i,1.2,0.1,1.7,parent,2020-09-30_10h14.50.100,ANT,2020.1.3,Win32,60,,,,,,0,,0,37,37,25,1,0.5,,,,,,,,,,
,,,,,,,,ANT_images/down.png,ANT_images/incong_r.png,-0.25,i,1,0.1,1.5,parent,2020-09-30_10h14.50.100,ANT,2020.1.3,Win32,60,,,,,,0,,0,38,38,47,1,0.7,,,,,,,,,,
,,,,,,,,ANT_images/double.png,ANT_images/incong_l.png,0.25,e,1,0.1,1.5,parent,2020-09-30_10h14.50.100,ANT,2020.1.3,Win32,60,,,,,,0,,0,39,39,28,1,0.7,,,,,,,,,,
,,,,,,,,ANT_images/center.png,ANT_images/cong_r.png,0.25,i,1.4,0.1,1.9,parent,2020-09-30_10h14.50.100,ANT,2020.1.3,Win32,60,,,,,,0,,0,40,40,15,1,0.3,,,,,,,,,,
,,,,,,,,ANT_images/none.png,ANT_images/cong_r.png,0.25,i,0.1,0,0.5,parent,2020-09-30_10h14.50.100,ANT,2020.1.3,Win32,60,,,,,i,1,0.94718,0,41,41,3,1,1.6,,,,,,,,,,
,,,,,,,,ANT_images/down.png,ANT_images/incong_l.png,-0.25,e,1.3,0.1,1.8,parent,2020-09-30_10h14.50.100,ANT,2020.1.3,Win32,60,,,,,,0,,0,42,42,46,1,0.4,,,,,,,,,,
,,,,,,,,ANT_images/center.png,ANT_images/neu_r.png,-0.25,i,0.7,0.1,1.2,parent,2020-09-30_10h14.50.100,ANT,2020.1.3,Win32,60,,,,,,0,,0,43,43,19,1,1,,,,,,,,,,
,,,,,,,,ANT_images/none.png,ANT_images/neu_l.png,-0.25,e,0.1,0,0.5,parent,2020-09-30_10h14.50.100,ANT,2020.1.3,Win32,60,,,,,e,1,1.02103,0,44,44,6,1,1.6,,,,,,,,,,
,,,,,,,,ANT_images/center.png,ANT_images/incong_r.png,-0.25,i,0.9,0.1,1.4,parent,2020-09-30_10h14.50.100,ANT,2020.1.3,Win32,60,,,,,,0,,0,45,45,23,1,0.8,,,,,,,,,,
,,,,,,,,ANT_images/double.png,ANT_images/incong_l.png,-0.25,e,1.5,0.1,2,parent,2020-09-30_10h14.50.100,ANT,2020.1.3,Win32,60,,,,,,0,,0,46,46,34,1,0.2,,,,,,,,,,
,,,,,,,,ANT_images/down.png,ANT_images/neu_r.png,-0.25,i,0.6,0.1,1.1,parent,2020-09-30_10h14.50.100,ANT,2020.1.3,Win32,60,,,,,i,1,1.5241,0,47,47,43,1,1.1,,,,,,,,,,
,,,,,,,,ANT_images/none.png,ANT_images/neu_l.png,-0.25,e,0.1,0,0.5,parent,2020-09-30_10h14.50.100,ANT,2020.1.3,Win32,60,,,,,e,1,0.90282,1,0,48,6,1,1.6,,,,,,,,,,
,,,,,,,,ANT_images/double.png,ANT_images/cong_r.png,0.25,i,1.3,0.1,1.8,parent,2020-09-30_10h14.50.100,ANT,2020.1.3,Win32,60,,,,,,0,,1,1,49,27,1,0.4,,,,,,,,,,
,,,,,,,,ANT_images/none.png,ANT_images/incong_l.png,0.25,e,0.1,0,0.5,parent,2020-09-30_10h14.50.100,ANT,2020.1.3,Win32,60,,,,,e,1,1.035605,1,2,50,4,1,1.6,,,,,,,,,,
,,,,,,,,ANT_images/none.png,ANT_images/incong_r.png,0.25,i,0.1,0,0.5,parent,2020-09-30_10h14.50.100,ANT,2020.1.3,Win32,60,,,,,i,1,1.07081,1,3,51,5,1,1.6,,,,,,,,,,
,,,,,,,,ANT_images/double.png,ANT_images/neu_r.png,-0.25,i,0.7,0.1,1.2,parent,2020-09-30_10h14.50.100,ANT,2020.1.3,Win32,60,,,,,,0,,1,4,52,31,1,1,,,,,,,,,,
,,,,,,,,ANT_images/center.png,ANT_images/neu_l.png,0.25,e,1.1,0.1,1.6,parent,2020-09-30_10h14.50.100,ANT,2020.1.3,Win32,60,,,,,,0,,1,5,53,12,1,0.6,,,,,,,,,,
,,,,,,,,ANT_images/none.png,ANT_images/neu_r.png,0.25,i,0.1,0,0.5,parent,2020-09-30_10h14.50.100,ANT,2020.1.3,Win32,60,,,,,i,1,1.06818,1,6,54,1,1,1.6,,,,,,,,,,
,,,,,,,,ANT_images/up.png,ANT_images/cong_r.png,0.25,i,1.4,0.1,1.9,parent,2020-09-30_10h14.50.100,ANT,2020.1.3,Win32,60,,,,,,0,,1,7,55,39,1,0.3,,,,,,,,,,
,,,,,,,,ANT_images/down.png,ANT_images/neu_l.png,-0.25,e,0.8,0.1,1.3,parent,2020-09-30_10h14.50.100,ANT,2020.1.3,Win32,60,,,,,,0,,1,8,56,42,1,0.9,,,,,,,,,,
,,,,,,,,ANT_images/down.png,ANT_images/cong_r.png,-0.25,i,0.4,0.1,0.9,parent,2020-09-30_10h14.50.100,ANT,2020.1.3,Win32,60,,,,,i,1,1.378615,1,9,57,45,1,1.3,,,,,,,,,,
,,,,,,,,ANT_images/none.png,ANT_images/neu_l.png,0.25,e,0.1,0,0.5,parent,2020-09-30_10h14.50.100,ANT,2020.1.3,Win32,60,,,,,e,1,1.06972,1,10,58,0,1,1.6,,,,,,,,,,
,,,,,,,,ANT_images/double.png,ANT_images/neu_l.png,-0.25,e,0.5,0.1,1,parent,2020-09-30_10h14.50.100,ANT,2020.1.3,Win32,60,,,,,e,1,1.521725,1,11,59,30,1,1.2,,,,,,,,,,
,,,,,,,,ANT_images/down.png,ANT_images/incong_r.png,-0.25,i,1,0.1,1.5,parent,2020-09-30_10h14.50.100,ANT,2020.1.3,Win32,60,,,,,,0,,1,12,60,47,1,0.7,,,,,,,,,,
,,,,,,,,ANT_images/center.png,ANT_images/incong_l.png,0.25,e,0.5,0.1,1,parent,2020-09-30_10h14.50.100,ANT,2020.1.3,Win32,60,,,,,,0,,1,13,61,16,1,1.2,,,,,,,,,,
,,,,,,,,ANT_images/center.png,ANT_images/neu_r.png,0.25,i,1,0.1,1.5,parent,2020-09-30_10h14.50.100,ANT,2020.1.3,Win32,60,,,,,,0,,1,14,62,13,1,0.7,,,,,,,,,,
,,,,,,,,ANT_images/none.png,ANT_images/cong_r.png,0.25,i,0.1,0,0.5,parent,2020-09-30_10h14.50.100,ANT,2020.1.3,Win32,60,,,,,i,1,0.92543,1,15,63,3,1,1.6,,,,,,,,,,
,,,,,,,,ANT_images/double.png,ANT_images/neu_r.png,0.25,i,1.2,0.1,1.7,parent,2020-09-30_10h14.50.100,ANT,2020.1.3,Win32,60,,,,,,0,,1,16,64,25,1,0.5,,,,,,,,,,
,,,,,,,,ANT_images/double.png,ANT_images/incong_l.png,0.25,e,1,0.1,1.5,parent,2020-09-30_10h14.50.100,ANT,2020.1.3,Win32,60,,,,,,0,,1,17,65,28,1,0.7,,,,,,,,,,
,,,,,,,,ANT_images/none.png,ANT_images/incong_r.png,-0.25,i,0.1,0,0.5,parent,2020-09-30_10h14.50.100,ANT,2020.1.3,Win32,60,,,,,i,1,1.07495,1,18,66,11,1,1.6,,,,,,,,,,
,,,,,,,,ANT_images/up.png,ANT_images/neu_r.png,0.25,i,0.8,0.1,1.3,parent,2020-09-30_10h14.50.100,ANT,2020.1.3,Win32,60,,,,,,0,,1,19,67,37,1,0.9,,,,,,,,,,
,,,,,,,,ANT_images/down.png,ANT_images/cong_l.png,-0.25,e,1.2,0.1,1.7,parent,2020-09-30_10h14.50.100,ANT,2020.1.3,Win32,60,,,,,,0,,1,20,68,44,1,0.5,,,,,,,,,,
,,,,,,,,ANT_images/none.png,ANT_images/incong_l.png,-0.25,e,0.1,0,0.5,parent,2020-09-30_10h14.50.100,ANT,2020.1.3,Win32,60,,,,,e,1,0.99362,1,21,69,10,1,1.6,,,,,,,,,,
,,,,,,,,ANT_images/double.png,ANT_images/neu_l.png,0.25,e,0.6,0.1,1.1,parent,2020-09-30_10h14.50.100,ANT,2020.1.3,Win32,60,,,,,e,1,1.53776,1,22,70,24,1,1.1,,,,,,,,,,
,,,,,,,,ANT_images/up.png,ANT_images/incong_r.png,0.25,i,0.9,0.1,1.4,parent,2020-09-30_10h14.50.100,ANT,2020.1.3,Win32,60,,,,,,0,,1,23,71,41,1,0.8,,,,,,,,,,
,,,,,,,,ANT_images/none.png,ANT_images/neu_r.png,-0.25,i,0.1,0,0.5,parent,2020-09-30_10h14.50.100,ANT,2020.1.3,Win32,60,,,,,i,1,0.91722,1,24,72,7,1,1.6,,,,,,,,,,
,,,,,,,,ANT_images/double.png,ANT_images/incong_r.png,0.25,i,0.9,0.1,1.4,parent,2020-09-30_10h14.50.100,ANT,2020.1.3,Win32,60,,,,,,0,,1,25,73,29,1,0.8,,,,,,,,,,
,,,,,,,,ANT_images/center.png,ANT_images/cong_l.png,-0.25,e,1.5,0.1,2,parent,2020-09-30_10h14.50.100,ANT,2020.1.3,Win32,60,,,,,,0,,1,26,74,20,1,0.2,,,,,,,,,,
,,,,,,,,ANT_images/up.png,ANT_images/cong_l.png,0.25,e,1.5,0.1,2,parent,2020-09-30_10h14.50.100,ANT,2020.1.3,Win32,60,,,,,,0,,1,27,75,38,1,0.2,,,,,,,,,,
,,,,,,,,ANT_images/double.png,ANT_images/incong_l.png,-0.25,e,1.5,0.1,2,parent,2020-09-30_10h14.50.100,ANT,2020.1.3,Win32,60,,,,,,0,,1,28,76,34,1,0.2,,,,,,,,,,
,,,,,,,,ANT_images/none.png,ANT_images/cong_l.png,-0.25,e,0.1,0,0.5,parent,2020-09-30_10h14.50.100,ANT,2020.1.3,Win32,60,,,,,e,1,0.974185,1,29,77,8,1,1.6,,,,,,,,,,
,,,,,,,,ANT_images/center.png,ANT_images/neu_l.png,-0.25,e,0.8,0.1,1.3,parent,2020-09-30_10h14.50.100,ANT,2020.1.3,Win32,60,,,,,,0,,1,30,78,18,1,0.9,,,,,,,,,,
,,,,,,,,ANT_images/down.png,ANT_images/neu_r.png,-0.25,i,0.6,0.1,1.1,parent,2020-09-30_10h14.50.100,ANT,2020.1.3,Win32,60,,,,,i,1,1.516595,1,31,79,43,1,1.1,,,,,,,,,,
,,,,,,,,ANT_images/double.png,ANT_images/cong_l.png,0.25,e,0.6,0.1,1.1,parent,2020-09-30_10h14.50.100,ANT,2020.1.3,Win32,60,,,,,,0,,1,32,80,26,1,1.1,,,,,,,,,,
,,,,,,,,ANT_images/center.png,ANT_images/incong_l.png,-0.25,e,1.3,0.1,1.8,parent,2020-09-30_10h14.50.100,ANT,2020.1.3,Win32,60,,,,,,0,,1,33,81,22,1,0.4,,,,,,,,,,
,,,,,,,,ANT_images/up.png,ANT_images/incong_l.png,0.25,e,0.5,0.1,1,parent,2020-09-30_10h14.50.100,ANT,2020.1.3,Win32,60,,,,,e,1,1.57794,1,34,82,40,1,1.2,,,,,,,,,,
,,,,,,,,ANT_images/up.png,ANT_images/neu_l.png,0.25,e,1.4,0.1,1.9,parent,2020-09-30_10h14.50.100,ANT,2020.1.3,Win32,60,,,,,,0,,1,35,83,36,1,0.3,,,,,,,,,,
,,,,,,,,ANT_images/center.png,ANT_images/neu_r.png,-0.25,i,0.7,0.1,1.2,parent,2020-09-30_10h14.50.100,ANT,2020.1.3,Win32,60,,,,,,0,,1,36,84,19,1,1,,,,,,,,,,
,,,,,,,,ANT_images/center.png,ANT_images/cong_r.png,0.25,i,1.4,0.1,1.9,parent,2020-09-30_10h14.50.100,ANT,2020.1.3,Win32,60,,,,,,0,,1,37,85,15,1,0.3,,,,,,,,,,
,,,,,,,,ANT_images/center.png,ANT_images/cong_l.png,0.25,e,1.2,0.1,1.7,parent,2020-09-30_10h14.50.100,ANT,2020.1.3,Win32,60,,,,,,0,,1,38,86,14,1,0.5,,,,,,,,,,
,,,,,,,,ANT_images/down.png,ANT_images/incong_l.png,-0.25,e,1.3,0.1,1.8,parent,2020-09-30_10h14.50.100,ANT,2020.1.3,Win32,60,,,,,,0,,1,39,87,46,1,0.4,,,,,,,,,,
,,,,,,,,ANT_images/none.png,ANT_images/cong_r.png,-0.25,i,0.1,0,0.5,parent,2020-09-30_10h14.50.100,ANT,2020.1.3,Win32,60,,,,,i,1,0.94162,1,40,88,9,1,1.6,,,,,,,,,,
,,,,,,,,ANT_images/double.png,ANT_images/incong_r.png,-0.25,i,1.6,0.1,2.1,parent,2020-09-30_10h14.50.100,ANT,2020.1.3,Win32,60,,,,,,0,,1,41,89,35,1,0.1,,,,,,,,,,
,,,,,,,,ANT_images/double.png,ANT_images/cong_l.png,-0.25,e,0.4,0.1,0.9,parent,2020-09-30_10h14.50.100,ANT,2020.1.3,Win32,60,,,,,e,1,1.381575,1,42,90,32,1,1.3,,,,,,,,,,
,,,,,,,,ANT_images/center.png,ANT_images/cong_r.png,-0.25,i,1.6,0.1,2.1,parent,2020-09-30_10h14.50.100,ANT,2020.1.3,Win32,60,,,,,,0,,1,43,91,21,1,0.1,,,,,,,,,,
,,,,,,,,ANT_images/none.png,ANT_images/cong_l.png,0.25,e,0.1,0,0.5,parent,2020-09-30_10h14.50.100,ANT,2020.1.3,Win32,60,,,,,e,1,1.00129,1,44,92,2,1,1.6,,,,,,,,,,
,,,,,,,,ANT_images/double.png,ANT_images/cong_r.png,-0.25,i,1.1,0.1,1.6,parent,2020-09-30_10h14.50.100,ANT,2020.1.3,Win32,60,,,,,,0,,1,45,93,33,1,0.6,,,,,,,,,,
,,,,,,,,ANT_images/center.png,ANT_images/incong_r.png,-0.25,i,0.9,0.1,1.4,parent,2020-09-30_10h14.50.100,ANT,2020.1.3,Win32,60,,,,,,0,,1,46,94,23,1,0.8,,,,,,,,,,
,,,,,,,,ANT_images/center.png,ANT_images/incong_r.png,0.25,i,0.4,0.1,0.9,parent,2020-09-30_10h14.50.100,ANT,2020.1.3,Win32,60,,,,,i,1,1.50443,1,47,95,17,1,1.3,,,,,,,,,,
,,,,,,,,,,,,,,,parent,2020-09-30_10h14.50.100,ANT,2020.1.3,Win32,60,,,,,,,,,,,,,,0,0,0,0,1,,,,,
,,,,,,,,ANT_images/none.png,ANT_images/incong_r.png,0.25,i,0.1,0,0.5,parent,2020-09-30_10h14.50.100,ANT,2020.1.3,Win32,60,,,,,i,1,1.446785,0,0,0,5,1,1.6,,,,,,,,,,
,,,,,,,,ANT_images/none.png,ANT_images/cong_r.png,0.25,i,0.1,0,0.5,parent,2020-09-30_10h14.50.100,ANT,2020.1.3,Win32,60,,,,,i,1,1.02074,0,1,1,3,1,1.6,,,,,,,,,,
,,,,,,,,ANT_images/double.png,ANT_images/cong_r.png,0.25,i,1.3,0.1,1.8,parent,2020-09-30_10h14.50.100,ANT,2020.1.3,Win32,60,,,,,,0,,0,2,2,27,1,0.4,,,,,,,,,,
,,,,,,,,ANT_images/up.png,ANT_images/neu_r.png,0.25,i,0.8,0.1,1.3,parent,2020-09-30_10h14.50.100,ANT,2020.1.3,Win32,60,,,,,,0,,0,3,3,37,1,0.9,,,,,,,,,,
,,,,,,,,ANT_images/center.png,ANT_images/cong_l.png,0.25,e,1.2,0.1,1.7,parent,2020-09-30_10h14.50.100,ANT,2020.1.3,Win32,60,,,,,,0,,0,4,4,14,1,0.5,,,,,,,,,,
,,,,,,,,ANT_images/down.png,ANT_images/cong_r.png,-0.25,i,0.4,0.1,0.9,parent,2020-09-30_10h14.50.100,ANT,2020.1.3,Win32,60,,,,,e,0,1.01074,0,5,5,45,1,1.3,,,,,,,,,,
,,,,,,,,ANT_images/none.png,ANT_images/cong_r.png,-0.25,i,0.1,0,0.5,parent,2020-09-30_10h14.50.100,ANT,2020.1.3,Win32,60,,,,,i,1,1.001625,0,6,6,9,1,1.6,,,,,,,,,,
,,,,,,,,ANT_images/center.png,ANT_images/incong_r.png,-0.25,i,0.9,0.1,1.4,parent,2020-09-30_10h14.50.100,ANT,2020.1.3,Win32,60,,,,,,0,,0,7,7,23,1,0.8,,,,,,,,,,
,,,,,,,,ANT_images/up.png,ANT_images/incong_r.png,0.25,i,0.9,0.1,1.4,parent,2020-09-30_10h14.50.100,ANT,2020.1.3,Win32,60,,,,,,0,,0,8,8,41,1,0.8,,,,,,,,,,
,,,,,,,,ANT_images/none.png,ANT_images/neu_l.png,0.25,e,0.1,0,0.5,parent,2020-09-30_10h14.50.100,ANT,2020.1.3,Win32,60,,,,,e,1,1.003345,0,9,9,0,1,1.6,,,,,,,,,,
,,,,,,,,ANT_images/down.png,ANT_images/neu_r.png,-0.25,i,0.6,0.1,1.1,parent,2020-09-30_10h14.50.100,ANT,2020.1.3,Win32,60,,,,,i,1,1.569105,0,10,10,43,1,1.1,,,,,,,,,,
,,,,,,,,ANT_images/down.png,ANT_images/incong_r.png,-0.25,i,1,0.1,1.5,parent,2020-09-30_10h14.50.100,ANT,2020.1.3,Win32,60,,,,,,0,,0,11,11,47,1,0.7,,,,,,,,,,
,,,,,,,,ANT_images/double.png,ANT_images/neu_l.png,-0.25,e,0.5,0.1,1,parent,2020-09-30_10h14.50.100,ANT,2020.1.3,Win32,60,,,,,i,0,1.51518,0,12,12,30,1,1.2,,,,,,,,,,
,,,,,,,,ANT_images/double.png,ANT_images/incong_l.png,0.25,e,1,0.1,1.5,parent,2020-09-30_10h14.50.100,ANT,2020.1.3,Win32,60,,,,,,0,,0,13,13,28,1,0.7,,,,,,,,,,
,,,,,,,,ANT_images/down.png,ANT_images/cong_l.png,-0.25,e,1.2,0.1,1.7,parent,2020-09-30_10h14.50.100,ANT,2020.1.3,Win32,60,,,,,,0,,0,14,14,44,1,0.5,,,,,,,,,,
,,,,,,,,ANT_images/center.png,ANT_images/cong_r.png,0.25,i,1.4,0.1,1.9,parent,2020-09-30_10h14.50.100,ANT,2020.1.3,Win32,60,,,,,,0,,0,15,15,15,1,0.3,,,,,,,,,,
,,,,,,,,ANT_images/none.png,ANT_images/neu_l.png,-0.25,e,0.1,0,0.5,parent,2020-09-30_10h14.50.100,ANT,2020.1.3,Win32,60,,,,,e,1,1.034735,0,16,16,6,1,1.6,,,,,,,,,,
,,,,,,,,ANT_images/none.png,ANT_images/neu_r.png,-0.25,i,0.1,0,0.5,parent,2020-09-30_10h14.50.100,ANT,2020.1.3,Win32,60,,,,,i,1,0.937255,0,17,17,7,1,1.6,,,,,,,,,,
,,,,,,,,ANT_images/center.png,ANT_images/cong_l.png,-0.25,e,1.5,0.1,2,parent,2020-09-30_10h14.50.100,ANT,2020.1.3,Win32,60,,,,,,0,,0,18,18,20,1,0.2,,,,,,,,,,
,,,,,,,,ANT_images/double.png,ANT_images/neu_r.png,0.25,i,1.2,0.1,1.7,parent,2020-09-30_10h14.50.100,ANT,2020.1.3,Win32,60,,,,,,0,,0,19,19,25,1,0.5,,,,,,,,,,
,,,,,,,,ANT_images/center.png,ANT_images/incong_l.png,0.25,e,0.5,0.1,1,parent,2020-09-30_10h14.50.100,ANT,2020.1.3,Win32,60,,,,,e,1,1.520355,0,20,20,16,1,1.2,,,,,,,,,,
,,,,,,,,ANT_images/center.png,ANT_images/neu_l.png,0.25,e,1.1,0.1,1.6,parent,2020-09-30_10h14.50.100,ANT,2020.1.3,Win32,60,,,,,,0,,0,21,21,12,1,0.6,,,,,,,,,,
,,,,,,,,ANT_images/double.png,ANT_images/incong_r.png,0.25,i,0.9,0.1,1.4,parent,2020-09-30_10h14.50.100,ANT,2020.1.3,Win32,60,,,,,,0,,0,22,22,29,1,0.8,,,,,,,,,,
,,,,,,,,ANT_images/none.png,ANT_images/cong_l.png,-0.25,e,0.1,0,0.5,parent,2020-09-30_10h14.50.100,ANT,2020.1.3,Win32,60,,,,,e,1,1.06514,0,23,23,8,1,1.6,,,,,,,,,,
,,,,,,,,ANT_images/up.png,ANT_images/neu_l.png,0.25,e,1.4,0.1,1.9,parent,2020-09-30_10h14.50.100,ANT,2020.1.3,Win32,60,,,,,,0,,0,24,24,36,1,0.3,,,,,,,,,,
,,,,,,,,ANT_images/double.png,ANT_images/neu_r.png,-0.25,i,0.7,0.1,1.2,parent,2020-09-30_10h14.50.100,ANT,2020.1.3,Win32,60,,,,,i,1,1.5666,0,25,25,31,1,1,,,,,,,,,,
,,,,,,,,ANT_images/none.png,ANT_images/incong_l.png,0.25,e,0.1,0,0.5,parent,2020-09-30_10h14.50.100,ANT,2020.1.3,Win32,60,,,,,e,1,1.0936,0,26,26,4,1,1.6,,,,,,,,,,
,,,,,,,,ANT_images/center.png,ANT_images/incong_l.png,-0.25,e,1.3,0.1,1.8,parent,2020-09-30_10h14.50.100,ANT,2020.1.3,Win32,60,,,,,,0,,0,27,27,22,1,0.4,,,,,,,,,,
,,,,,,,,ANT_images/none.png,ANT_images/neu_r.png,0.25,i,0.1,0,0.5,parent,2020-09-30_10h14.50.100,ANT,2020.1.3,Win32,60,,,,,i,1,0.984935,0,28,28,1,1,1.6,,,,,,,,,,
,,,,,,,,ANT_images/center.png,ANT_images/neu_l.png,-0.25,e,0.8,0.1,1.3,parent,2020-09-30_10h14.50.100,ANT,2020.1.3,Win32,60,,,,,,0,,0,29,29,18,1,0.9,,,,,,,,,,
,,,,,,,,ANT_images/center.png,ANT_images/neu_r.png,-0.25,i,0.7,0.1,1.2,parent,2020-09-30_10h14.50.100,ANT,2020.1.3,Win32,60,,,,,i,1,1.566765,0,30,30,19,1,1,,,,,,,,,,
,,,,,,,,ANT_images/none.png,ANT_images/incong_r.png,-0.25,i,0.1,0,0.5,parent,2020-09-30_10h14.50.100,ANT,2020.1.3,Win32,60,,,,,i,1,1.137165,0,31,31,11,1,1.6,,,,,,,,,,
,,,,,,,,ANT_images/none.png,ANT_images/incong_l.png,-0.25,e,0.1,0,0.5,parent,2020-09-30_10h14.50.100,ANT,2020.1.3,Win32,60,,,,,e,1,1.124195,0,32,32,10,1,1.6,,,,,,,,,,
,,,,,,,,ANT_images/center.png,ANT_images/neu_r.png,0.25,i,1,0.1,1.5,parent,2020-09-30_10h14.50.100,ANT,2020.1.3,Win32,60,,,,,,0,,0,33,33,13,1,0.7,,,,,,,,,,
,,,,,,,,ANT_images/double.png,ANT_images/cong_r.png,-0.25,i,1.1,0.1,1.6,parent,2020-09-30_10h14.50.100,ANT,2020.1.3,Win32,60,,,,,,0,,0,34,34,33,1,0.6,,,,,,,,,,
,,,,,,,,ANT_images/double.png,ANT_images/neu_l.png,0.25,e,0.6,0.1,1.1,parent,2020-09-30_10h14.50.100,ANT,2020.1.3,Win32,60,,,,,e,1,1.462225,0,35,35,24,1,1.1,,,,,,,,,,
,,,,,,,,ANT_images/double.png,ANT_images/incong_l.png,-0.25,e,1.5,0.1,2,parent,2020-09-30_10h14.50.100,ANT,2020.1.3,Win32,60,,,,,,0,,0,36,36,34,1,0.2,,,,,,,,,,
,,,,,,,,ANT_images/up.png,ANT_images/cong_l.png,0.25,e,1.5,0.1,2,parent,2020-09-30_10h14.50.100,ANT,2020.1.3,Win32,60,,,,,,0,,0,37,37,38,1,0.2,,,,,,,,,,
,,,,,,,,ANT_images/up.png,ANT_images/incong_l.png,0.25,e,0.5,0.1,1,parent,2020-09-30_10h14.50.100,ANT,2020.1.3,Win32,60,,,,,,0,,0,38,38,40,1,1.2,,,,,,,,,,
,,,,,,,,ANT_images/down.png,ANT_images/neu_l.png,-0.25,e,0.8,0.1,1.3,parent,2020-09-30_10h14.50.100,ANT,2020.1.3,Win32,60,,,,,,0,,0,39,39,42,1,0.9,,,,,,,,,,
,,,,,,,,ANT_images/double.png,ANT_images/cong_l.png,0.25,e,0.6,0.1,1.1,parent,2020-09-30_10h14.50.100,ANT,2020.1.3,Win32,60,,,,,e,1,1.506685,0,40,40,26,1,1.1,,,,,,,,,,
,,,,,,,,ANT_images/none.png,ANT_images/cong_l.png,0.25,e,0.1,0,0.5,parent,2020-09-30_10h14.50.100,ANT,2020.1.3,Win32,60,,,,,e,1,1.01363,0,41,41,2,1,1.6,,,,,,,,,,
,,,,,,,,ANT_images/double.png,ANT_images/incong_r.png,-0.25,i,1.6,0.1,2.1,parent,2020-09-30_10h14.50.100,ANT,2020.1.3,Win32,60,,,,,,0,,0,42,42,35,1,0.1,,,,,,,,,,
,,,,,,,,ANT_images/double.png,ANT_images/cong_l.png,-0.25,e,0.4,0.1,0.9,parent,2020-09-30_10h14.50.100,ANT,2020.1.3,Win32,60,,,,,e,1,1.356645,0,43,43,32,1,1.3,,,,,,,,,,
,,,,,,,,ANT_images/center.png,ANT_images/incong_r.png,0.25,i,0.4,0.1,0.9,parent,2020-09-30_10h14.50.100,ANT,2020.1.3,Win32,60,,,,,i,1,1.45946,0,44,44,17,1,1.3,,,,,,,,,,
,,,,,,,,ANT_images/down.png,ANT_images/incong_l.png,-0.25,e,1.3,0.1,1.8,parent,2020-09-30_10h14.50.100,ANT,2020.1.3,Win32,60,,,,,,0,,0,45,45,46,1,0.4,,,,,,,,,,
,,,,,,,,ANT_images/center.png,ANT_images/cong_r.png,-0.25,i,1.6,0.1,2.1,parent,2020-09-30_10h14.50.100,ANT,2020.1.3,Win32,60,,,,,,0,,0,46,46,21,1,0.1,,,,,,,,,,
,,,,,,,,ANT_images/up.png,ANT_images/cong_r.png,0.25,i,1.4,0.1,1.9,parent,2020-09-30_10h14.50.100,ANT,2020.1.3,Win32,60,,,,,,0,,0,47,47,39,1,0.3,,,,,,,,,,
,,,,,,,,ANT_images/center.png,ANT_images/cong_l.png,0.25,e,1.2,0.1,1.7,parent,2020-09-30_10h14.50.100,ANT,2020.1.3,Win32,60,,,,,,0,,1,0,48,14,1,0.5,,,,,,,,,,
,,,,,,,,ANT_images/double.png,ANT_images/incong_l.png,-0.25,e,1.5,0.1,2,parent,2020-09-30_10h14.50.100,ANT,2020.1.3,Win32,60,,,,,,0,,1,1,49,34,1,0.2,,,,,,,,,,
,,,,,,,,ANT_images/double.png,ANT_images/cong_l.png,-0.25,e,0.4,0.1,0.9,parent,2020-09-30_10h14.50.100,ANT,2020.1.3,Win32,60,,,,,e,1,1.304205,1,2,50,32,1,1.3,,,,,,,,,,
,,,,,,,,ANT_images/down.png,ANT_images/neu_r.png,-0.25,i,0.6,0.1,1.1,parent,2020-09-30_10h14.50.100,ANT,2020.1.3,Win32,60,,,,,i,1,1.51661,1,3,51,43,1,1.1,,,,,,,,,,
,,,,,,,,ANT_images/up.png,ANT_images/neu_r.png,0.25,i,0.8,0.1,1.3,parent,2020-09-30_10h14.50.100,ANT,2020.1.3,Win32,60,,,,,,0,,1,4,52,37,1,0.9,,,,,,,,,,
,,,,,,,,ANT_images/down.png,ANT_images/incong_l.png,-0.25,e,1.3,0.1,1.8,parent,2020-09-30_10h14.50.100,ANT,2020.1.3,Win32,60,,,,,,0,,1,5,53,46,1,0.4,,,,,,,,,,
,,,,,,,,ANT_images/double.png,ANT_images/cong_r.png,-0.25,i,1.1,0.1,1.6,parent,2020-09-30_10h14.50.100,ANT,2020.1.3,Win32,60,,,,,,0,,1,6,54,33,1,0.6,,,,,,,,,,
,,,,,,,,ANT_images/none.png,ANT_images/cong_l.png,0.25,e,0.1,0,0.5,parent,2020-09-30_10h14.50.100,ANT,2020.1.3,Win32,60,,,,,e,1,0.90078,1,7,55,2,1,1.6,,,,,,,,,,
,,,,,,,,ANT_images/center.png,ANT_images/cong_r.png,-0.25,i,1.6,0.1,2.1,parent,2020-09-30_10h14.50.100,ANT,2020.1.3,Win32,60,,,,,,0,,1,8,56,21,1,0.1,,,,,,,,,,
,,,,,,,,ANT_images/none.png,ANT_images/neu_r.png,-0.25,i,0.1,0,0.5,parent,2020-09-30_10h14.50.100,ANT,2020.1.3,Win32,60,,,,,i,1,0.983245,1,9,57,7,1,1.6,,,,,,,,,,
,,,,,,,,ANT_images/double.png,ANT_images/neu_r.png,0.25,i,1.2,0.1,1.7,parent,2020-09-30_10h14.50.100,ANT,2020.1.3,Win32,60,,,,,,0,,1,10,58,25,1,0.5,,,,,,,,,,
,,,,,,,,ANT_images/none.png,ANT_images/incong_r.png,0.25,i,0.1,0,0.5,parent,2020-09-30_10h14.50.100,ANT,2020.1.3,Win32,60,,,,,i,1,1.06014,1,11,59,5,1,1.6,,,,,,,,,,
,,,,,,,,ANT_images/none.png,ANT_images/cong_r.png,-0.25,i,0.1,0,0.5,parent,2020-09-30_10h14.50.100,ANT,2020.1.3,Win32,60,,,,,e,0,0.943595,1,12,60,9,1,1.6,,,,,,,,,,
,,,,,,,,ANT_images/double.png,ANT_images/neu_l.png,0.25,e,0.6,0.1,1.1,parent,2020-09-30_10h14.50.100,ANT,2020.1.3,Win32,60,,,,,e,1,1.49695,1,13,61,24,1,1.1,,,,,,,,,,
,,,,,,,,ANT_images/center.png,ANT_images/incong_r.png,0.25,i,0.4,0.1,0.9,parent,2020-09-30_10h14.50.100,ANT,2020.1.3,Win32,60,,,,,i,1,1.427575,1,14,62,17,1,1.3,,,,,,,,,,
,,,,,,,,ANT_images/up.png,ANT_images/cong_l.png,0.25,e,1.5,0.1,2,parent,2020-09-30_10h14.50.100,ANT,2020.1.3,Win32,60,,,,,,0,,1,15,63,38,1,0.2,,,,,,,,,,
,,,,,,,,ANT_images/center.png,ANT_images/neu_r.png,-0.25,i,0.7,0.1,1.2,parent,2020-09-30_10h14.50.100,ANT,2020.1.3,Win32,60,,,,,i,1,1.55655,1,16,64,19,1,1,,,,,,,,,,
,,,,,,,,ANT_images/center.png,ANT_images/neu_l.png,-0.25,e,0.8,0.1,1.3,parent,2020-09-30_10h14.50.100,ANT,2020.1.3,Win32,60,,,,,,0,,1,17,65,18,1,0.9,,,,,,,,,,
,,,,,,,,ANT_images/none.png,ANT_images/cong_l.png,-0.25,e,0.1,0,0.5,parent,2020-09-30_10h14.50.100,ANT,2020.1.3,Win32,60,,,,,e,1,0.95579,1,18,66,8,1,1.6,,,,,,,,,,
,,,,,,,,ANT_images/down.png,ANT_images/neu_l.png,-0.25,e,0.8,0.1,1.3,parent,2020-09-30_10h14.50.100,ANT,2020.1.3,Win32,60,,,,,,0,,1,19,67,42,1,0.9,,,,,,,,,,
,,,,,,,,ANT_images/double.png,ANT_images/cong_l.png,0.25,e,0.6,0.1,1.1,parent,2020-09-30_10h14.50.100,ANT,2020.1.3,Win32,60,,,,,e,1,1.51381,1,20,68,26,1,1.1,,,,,,,,,,
,,,,,,,,ANT_images/double.png,ANT_images/incong_r.png,-0.25,i,1.6,0.1,2.1,parent,2020-09-30_10h14.50.100,ANT,2020.1.3,Win32,60,,,,,,0,,1,21,69,35,1,0.1,,,,,,,,,,
,,,,,,,,ANT_images/down.png,ANT_images/cong_r.png,-0.25,i,0.4,0.1,0.9,parent,2020-09-30_10h14.50.100,ANT,2020.1.3,Win32,60,,,,,i,1,1.27188,1,22,70,45,1,1.3,,,,,,,,,,
,,,,,,,,ANT_images/center.png,ANT_images/incong_l.png,0.25,e,0.5,0.1,1,parent,2020-09-30_10h14.50.100,ANT,2020.1.3,Win32,60,,,,,,0,,1,23,71,16,1,1.2,,,,,,,,,,
,,,,,,,,ANT_images/center.png,ANT_images/neu_r.png,0.25,i,1,0.1,1.5,parent,2020-09-30_10h14.50.100,ANT,2020.1.3,Win32,60,,,,,,0,,1,24,72,13,1,0.7,,,,,,,,,,
,,,,,,,,ANT_images/center.png,ANT_images/neu_l.png,0.25,e,1.1,0.1,1.6,parent,2020-09-30_10h14.50.100,ANT,2020.1.3,Win32,60,,,,,,0,,1,25,73,12,1,0.6,,,,,,,,,,
,,,,,,,,ANT_images/none.png,ANT_images/neu_l.png,0.25,e,0.1,0,0.5,parent,2020-09-30_10h14.50.100,ANT,2020.1.3,Win32,60,,,,,e,1,0.975055,1,26,74,0,1,1.6,,,,,,,,,,
,,,,,,,,ANT_images/double.png,ANT_images/cong_r.png,0.25,i,1.3,0.1,1.8,parent,2020-09-30_10h14.50.100,ANT,2020.1.3,Win32,60,,,,,,0,,1,27,75,27,1,0.4,,,,,,,,,,
,,,,,,,,ANT_images/up.png,ANT_images/incong_r.png,0.25,i,0.9,0.1,1.4,parent,2020-09-30_10h14.50.100,ANT,2020.1.3,Win32,60,,,,,,0,,1,28,76,41,1,0.8,,,,,,,,,,
,,,,,,,,ANT_images/none.png,ANT_images/incong_r.png,-0.25,i,0.1,0,0.5,parent,2020-09-30_10h14.50.100,ANT,2020.1.3,Win32,60,,,,,i,1,1.17851,1,29,77,11,1,1.6,,,,,,,,,,
,,,,,,,,ANT_images/down.png,ANT_images/cong_l.png,-0.25,e,1.2,0.1,1.7,parent,2020-09-30_10h14.50.100,ANT,2020.1.3,Win32,60,,,,,,0,,1,30,78,44,1,0.5,,,,,,,,,,
,,,,,,,,ANT_images/center.png,ANT_images/incong_r.png,-0.25,i,0.9,0.1,1.4,parent,2020-09-30_10h14.50.100,ANT,2020.1.3,Win32,60,,,,,,0,,1,31,79,23,1,0.8,,,,,,,,,,
,,,,,,,,ANT_images/none.png,ANT_images/neu_l.png,-0.25,e,0.1,0,0.5,parent,2020-09-30_10h14.50.100,ANT,2020.1.3,Win32,60,,,,,e,1,1.02212,1,32,80,6,1,1.6,,,,,,,,,,
,,,,,,,,ANT_images/up.png,ANT_images/cong_r.png,0.25,i,1.4,0.1,1.9,parent,2020-09-30_10h14.50.100,ANT,2020.1.3,Win32,60,,,,,,0,,1,33,81,39,1,0.3,,,,,,,,,,
,,,,,,,,ANT_images/double.png,ANT_images/neu_l.png,-0.25,e,0.5,0.1,1,parent,2020-09-30_10h14.50.100,ANT,2020.1.3,Win32,60,,,,,e,1,1.4458,1,34,82,30,1,1.2,,,,,,,,,,
,,,,,,,,ANT_images/up.png,ANT_images/incong_l.png,0.25,e,0.5,0.1,1,parent,2020-09-30_10h14.50.100,ANT,2020.1.3,Win32,60,,,,,,0,,1,35,83,40,1,1.2,,,,,,,,,,
,,,,,,,,ANT_images/none.png,ANT_images/incong_l.png,0.25,e,0.1,0,0.5,parent,2020-09-30_10h14.50.100,ANT,2020.1.3,Win32,60,,,,,e,1,1.115655,1,36,84,4,1,1.6,,,,,,,,,,
,,,,,,,,ANT_images/none.png,ANT_images/incong_l.png,-0.25,e,0.1,0,0.5,parent,2020-09-30_10h14.50.100,ANT,2020.1.3,Win32,60,,,,,e,1,1.080205,1,37,85,10,1,1.6,,,,,,,,,,
,,,,,,,,ANT_images/double.png,ANT_images/incong_l.png,0.25,e,1,0.1,1.5,parent,2020-09-30_10h14.50.100,ANT,2020.1.3,Win32,60,,,,,,0,,1,38,86,28,1,0.7,,,,,,,,,,
,,,,,,,,ANT_images/down.png,ANT_images/incong_r.png,-0.25,i,1,0.1,1.5,parent,2020-09-30_10h14.50.100,ANT,2020.1.3,Win32,60,,,,,,0,,1,39,87,47,1,0.7,,,,,,,,,,
,,,,,,,,ANT_images/double.png,ANT_images/incong_r.png,0.25,i,0.9,0.1,1.4,parent,2020-09-30_10h14.50.100,ANT,2020.1.3,Win32,60,,,,,,0,,1,40,88,29,1,0.8,,,,,,,,,,
,,,,,,,,ANT_images/none.png,ANT_images/neu_r.png,0.25,i,0.1,0,0.5,parent,2020-09-30_10h14.50.100,ANT,2020.1.3,Win32,60,,,,,i,1,0.97705,1,41,89,1,1,1.6,,,,,,,,,,
,,,,,,,,ANT_images/up.png,ANT_images/neu_l.png,0.25,e,1.4,0.1,1.9,parent,2020-09-30_10h14.50.100,ANT,2020.1.3,Win32,60,,,,,,0,,1,42,90,36,1,0.3,,,,,,,,,,
,,,,,,,,ANT_images/center.png,ANT_images/cong_l.png,-0.25,e,1.5,0.1,2,parent,2020-09-30_10h14.50.100,ANT,2020.1.3,Win32,60,,,,,,0,,1,43,91,20,1,0.2,,,,,,,,,,
,,,,,,,,ANT_images/double.png,ANT_images/neu_r.png,-0.25,i,0.7,0.1,1.2,parent,2020-09-30_10h14.50.100,ANT,2020.1.3,Win32,60,,,,,i,1,1.563615,1,44,92,31,1,1,,,,,,,,,,
,,,,,,,,ANT_images/none.png,ANT_images/cong_r.png,0.25,i,0.1,0,0.5,parent,2020-09-30_10h14.50.100,ANT,2020.1.3,Win32,60,,,,,i,1,0.998605,1,45,93,3,1,1.6,,,,,,,,,,
,,,,,,,,ANT_images/center.png,ANT_images/incong_l.png,-0.25,e,1.3,0.1,1.8,parent,2020-09-30_10h14.50.100,ANT,2020.1.3,Win32,60,,,,,,0,,1,46,94,22,1,0.4,,,,,,,,,,
,,,,,,,,ANT_images/center.png,ANT_images/cong_r.png,0.25,i,1.4,0.1,1.9,parent,2020-09-30_10h14.50.100,ANT,2020.1.3,Win32,60,,,,,,0,,1,47,95,15,1,0.3,,,,,,,,,,
,,,,,,,,ANT_images/none.png,ANT_images/incong_r.png,-0.25,i,0.1,0,0.5,parent,2020-09-30_10h14.50.100,ANT,2020.1.3,Win32,60,,,,,e,0,1.074545,,,,,,1.6,,,,,,0,0,0,11,1
,,,,,,,,ANT_images/none.png,ANT_images/incong_l.png,-0.25,e,0.1,0,0.5,parent,2020-09-30_10h14.50.100,ANT,2020.1.3,Win32,60,,,,,e,1,1.172685,,,,,,1.6,,,,,,0,1,1,10,1
,,,,,,,,ANT_images/none.png,ANT_images/incong_r.png,0.25,i,0.1,0,0.5,parent,2020-09-30_10h14.50.100,ANT,2020.1.3,Win32,60,,,,,i,1,1.20418,,,,,,1.6,,,,,,0,2,2,5,1
,,,,,,,,ANT_images/center.png,ANT_images/cong_l.png,0.25,e,1.2,0.1,1.7,parent,2020-09-30_10h14.50.100,ANT,2020.1.3,Win32,60,,,,,,0,,,,,,,0.5,,,,,,0,3,3,14,1
,,,,,,,,ANT_images/double.png,ANT_images/neu_l.png,-0.25,e,0.5,0.1,1,parent,2020-09-30_10h14.50.100,ANT,2020.1.3,Win32,60,,,,,e,1,1.38583,,,,,,1.2,,,,,,0,4,4,30,1
,,,,,,,,ANT_images/center.png,ANT_images/incong_r.png,-0.25,i,0.9,0.1,1.4,parent,2020-09-30_10h14.50.100,ANT,2020.1.3,Win32,60,,,,,,0,,,,,,,0.8,,,,,,0,5,5,23,1
,,,,,,,,ANT_images/center.png,ANT_images/incong_l.png,0.25,e,0.5,0.1,1,parent,2020-09-30_10h14.50.100,ANT,2020.1.3,Win32,60,,,,,e,1,1.623605,,,,,,1.2,,,,,,0,6,6,16,1
,,,,,,,,ANT_images/center.png,ANT_images/cong_r.png,0.25,i,1.4,0.1,1.9,parent,2020-09-30_10h14.50.100,ANT,2020.1.3,Win32,60,,,,,,0,,,,,,,0.3,,,,,,0,7,7,15,1
,,,,,,,,ANT_images/none.png,ANT_images/neu_l.png,-0.25,e,0.1,0,0.5,parent,2020-09-30_10h14.50.100,ANT,2020.1.3,Win32,60,,,,,e,1,0.99247,,,,,,1.6,,,,,,0,8,8,6,1
,,,,,,,,ANT_images/double.png,ANT_images/cong_r.png,0.25,i,1.3,0.1,1.8,parent,2020-09-30_10h14.50.100,ANT,2020.1.3,Win32,60,,,,,,0,,,,,,,0.4,,,,,,0,9,9,27,1
,,,,,,,,ANT_images/down.png,ANT_images/incong_l.png,-0.25,e,1.3,0.1,1.8,parent,2020-09-30_10h14.50.100,ANT,2020.1.3,Win32,60,,,,,,0,,,,,,,0.4,,,,,,0,10,10,46,1
,,,,,,,,ANT_images/up.png,ANT_images/incong_l.png,0.25,e,0.5,0.1,1,parent,2020-09-30_10h14.50.100,ANT,2020.1.3,Win32,60,,,,,e,1,1.55966,,,,,,1.2,,,,,,0,11,11,40,1
,,,,,,,,ANT_images/up.png,ANT_images/incong_r.png,0.25,i,0.9,0.1,1.4,parent,2020-09-30_10h14.50.100,ANT,2020.1.3,Win32,60,,,,,,0,,,,,,,0.8,,,,,,0,12,12,41,1
,,,,,,,,ANT_images/center.png,ANT_images/neu_r.png,0.25,i,1,0.1,1.5,parent,2020-09-30_10h14.50.100,ANT,2020.1.3,Win32,60,,,,,,0,,,,,,,0.7,,,,,,0,13,13,13,1
,,,,,,,,ANT_images/down.png,ANT_images/neu_l.png,-0.25,e,0.8,0.1,1.3,parent,2020-09-30_10h14.50.100,ANT,2020.1.3,Win32,60,,,,,,0,,,,,,,0.9,,,,,,0,14,14,42,1
,,,,,,,,ANT_images/up.png,ANT_images/cong_r.png,0.25,i,1.4,0.1,1.9,parent,2020-09-30_10h14.50.100,ANT,2020.1.3,Win32,60,,,,,,0,,,,,,,0.3,,,,,,0,15,15,39,1
,,,,,,,,ANT_images/none.png,ANT_images/neu_l.png,0.25,e,0.1,0,0.5,parent,2020-09-30_10h14.50.100,ANT,2020.1.3,Win32,60,,,,,e,1,1.052185,,,,,,1.6,,,,,,0,16,16,0,1
,,,,,,,,ANT_images/double.png,ANT_images/neu_l.png,0.25,e,0.6,0.1,1.1,parent,2020-09-30_10h14.50.100,ANT,2020.1.3,Win32,60,,,,,e,1,1.539385,,,,,,1.1,,,,,,0,17,17,24,1
,,,,,,,,ANT_images/center.png,ANT_images/incong_r.png,0.25,i,0.4,0.1,0.9,parent,2020-09-30_10h14.50.100,ANT,2020.1.3,Win32,60,,,,,i,1,1.40246,,,,,,1.3,,,,,,0,18,18,17,1
,,,,,,,,ANT_images/center.png,ANT_images/neu_r.png,-0.25,i,0.7,0.1,1.2,parent,2020-09-30_10h14.50.100,ANT,2020.1.3,Win32,60,,,,,i,1,1.613625,,,,,,1,,,,,,0,19,19,19,1
,,,,,,,,ANT_images/double.png,ANT_images/neu_r.png,-0.25,i,0.7,0.1,1.2,parent,2020-09-30_10h14.50.100,ANT,2020.1.3,Win32,60,,,,,i,1,1.56886,,,,,,1,,,,,,0,20,20,31,1
,,,,,,,,ANT_images/center.png,ANT_images/neu_l.png,-0.25,e,0.8,0.1,1.3,parent,2020-09-30_10h14.50.100,ANT,2020.1.3,Win32,60,,,,,,0,,,,,,,0.9,,,,,,0,21,21,18,1
,,,,,,,,ANT_images/double.png,ANT_images/incong_r.png,-0.25,i,1.6,0.1,2.1,parent,2020-09-30_10h14.50.100,ANT,2020.1.3,Win32,60,,,,,,0,,,,,,,0.1,,,,,,0,22,22,35,1
,,,,,,,,ANT_images/down.png,ANT_images/cong_l.png,-0.25,e,1.2,0.1,1.7,parent,2020-09-30_10h14.50.100,ANT,2020.1.3,Win32,60,,,,,,0,,,,,,,0.5,,,,,,0,23,23,44,1
,,,,,,,,ANT_images/none.png,ANT_images/cong_l.png,-0.25,e,0.1,0,0.5,parent,2020-09-30_10h14.50.100,ANT,2020.1.3,Win32,60,,,,,e,1,0.97174,,,,,,1.6,,,,,,0,24,24,8,1
,,,,,,,,ANT_images/none.png,ANT_images/cong_r.png,-0.25,i,0.1,0,0.5,parent,2020-09-30_10h14.50.100,ANT,2020.1.3,Win32,60,,,,,i,1,1.046495,,,,,,1.6,,,,,,0,25,25,9,1
,,,,,,,,ANT_images/down.png,ANT_images/incong_r.png,-0.25,i,1,0.1,1.5,parent,2020-09-30_10h14.50.100,ANT,2020.1.3,Win32,60,,,,,,0,,,,,,,0.7,,,,,,0,26,26,47,1
,,,,,,,,ANT_images/none.png,ANT_images/incong_l.png,0.25,e,0.1,0,0.5,parent,2020-09-30_10h14.50.100,ANT,2020.1.3,Win32,60,,,,,e,1,1.118735,,,,,,1.6,,,,,,0,27,27,4,1
,,,,,,,,ANT_images/double.png,ANT_images/cong_l.png,0.25,e,0.6,0.1,1.1,parent,2020-09-30_10h14.50.100,ANT,2020.1.3,Win32,60,,,,,e,1,1.529495,,,,,,1.1,,,,,,0,28,28,26,1
,,,,,,,,ANT_images/down.png,ANT_images/cong_r.png,-0.25,i,0.4,0.1,0.9,parent,2020-09-30_10h14.50.100,ANT,2020.1.3,Win32,60,,,,,i,1,1.251755,,,,,,1.3,,,,,,0,29,29,45,1
,,,,,,,,ANT_images/down.png,ANT_images/neu_r.png,-0.25,i,0.6,0.1,1.1,parent,2020-09-30_10h14.50.100,ANT,2020.1.3,Win32,60,,,,,i,1,1.471605,,,,,,1.1,,,,,,0,30,30,43,1
,,,,,,,,ANT_images/center.png,ANT_images/cong_r.png,-0.25,i,1.6,0.1,2.1,parent,2020-09-30_10h14.50.100,ANT,2020.1.3,Win32,60,,,,,,0,,,,,,,0.1,,,,,,0,31,31,21,1
,,,,,,,,ANT_images/double.png,ANT_images/incong_l.png,0.25,e,1,0.1,1.5,parent,2020-09-30_10h14.50.100,ANT,2020.1.3,Win32,60,,,,,,0,,,,,,,0.7,,,,,,0,32,32,28,1
,,,,,,,,ANT_images/double.png,ANT_images/incong_l.png,-0.25,e,1.5,0.1,2,parent,2020-09-30_10h14.50.100,ANT,2020.1.3,Win32,60,,,,,,0,,,,,,,0.2,,,,,,0,33,33,34,1
,,,,,,,,ANT_images/center.png,ANT_images/incong_l.png,-0.25,e,1.3,0.1,1.8,parent,2020-09-30_10h14.50.100,ANT,2020.1.3,Win32,60,,,,,,0,,,,,,,0.4,,,,,,0,34,34,22,1
,,,,,,,,ANT_images/center.png,ANT_images/neu_l.png,0.25,e,1.1,0.1,1.6,parent,2020-09-30_10h14.50.100,ANT,2020.1.3,Win32,60,,,,,,0,,,,,,,0.6,,,,,,0,35,35,12,1
,,,,,,,,ANT_images/none.png,ANT_images/neu_r.png,0.25,i,0.1,0,0.5,parent,2020-09-30_10h14.50.100,ANT,2020.1.3,Win32,60,,,,,i,1,0.91556,,,,,,1.6,,,,,,0,36,36,1,1
,,,,,,,,ANT_images/up.png,ANT_images/cong_l.png,0.25,e,1.5,0.1,2,parent,2020-09-30_10h14.50.100,ANT,2020.1.3,Win32,60,,,,,,0,,,,,,,0.2,,,,,,0,37,37,38,1
,,,,,,,,ANT_images/double.png,ANT_images/cong_l.png,-0.25,e,0.4,0.1,0.9,parent,2020-09-30_10h14.50.100,ANT,2020.1.3,Win32,60,,,,,e,1,1.28217,,,,,,1.3,,,,,,0,38,38,32,1
,,,,,,,,ANT_images/none.png,ANT_images/cong_l.png,0.25,e,0.1,0,0.5,parent,2020-09-30_10h14.50.100,ANT,2020.1.3,Win32,60,,,,,e,1,0.848945,,,,,,1.6,,,,,,0,39,39,2,1
,,,,,,,,ANT_images/double.png,ANT_images/incong_r.png,0.25,i,0.9,0.1,1.4,parent,2020-09-30_10h14.50.100,ANT,2020.1.3,Win32,60,,,,,,0,,,,,,,0.8,,,,,,0,40,40,29,1
,,,,,,,,ANT_images/center.png,ANT_images/cong_l.png,-0.25,e,1.5,0.1,2,parent,2020-09-30_10h14.50.100,ANT,2020.1.3,Win32,60,,,,,,0,,,,,,,0.2,,,,,,0,41,41,20,1
,,,,,,,,ANT_images/none.png,ANT_images/cong_r.png,0.25,i,0.1,0,0.5,parent,2020-09-30_10h14.50.100,ANT,2020.1.3,Win32,60,,,,,i,1,0.950605,,,,,,1.6,,,,,,0,42,42,3,1
,,,,,,,,ANT_images/up.png,ANT_images/neu_l.png,0.25,e,1.4,0.1,1.9,parent,2020-09-30_10h14.50.100,ANT,2020.1.3,Win32,60,,,,,,0,,,,,,,0.3,,,,,,0,43,43,36,1
,,,,,,,,ANT_images/none.png,ANT_images/neu_r.png,-0.25,i,0.1,0,0.5,parent,2020-09-30_10h14.50.100,ANT,2020.1.3,Win32,60,,,,,i,1,1.04119,,,,,,1.6,,,,,,0,44,44,7,1
,,,,,,,,ANT_images/double.png,ANT_images/cong_r.png,-0.25,i,1.1,0.1,1.6,parent,2020-09-30_10h14.50.100,ANT,2020.1.3,Win32,60,,,,,,0,,,,,,,0.6,,,,,,0,45,45,33,1
,,,,,,,,ANT_images/up.png,ANT_images/neu_r.png,0.25,i,0.8,0.1,1.3,parent,2020-09-30_10h14.50.100,ANT,2020.1.3,Win32,60,,,,,,0,,,,,,,0.9,,,,,,0,46,46,37,1
,,,,,,,,ANT_images/double.png,ANT_images/neu_r.png,0.25,i,1.2,0.1,1.7,parent,2020-09-30_10h14.50.100,ANT,2020.1.3,Win32,60,,,,,,0,,,,,,,0.5,,,,,,0,47,47,25,1
,,,,,,,,ANT_images/double.png,ANT_images/neu_r.png,0.25,i,1.2,0.1,1.7,parent,2020-09-30_10h14.50.100,ANT,2020.1.3,Win32,60,,,,,,0,,,,,,,0.5,,,,,,1,0,48,25,1
,,,,,,,,ANT_images/none.png,ANT_images/incong_r.png,0.25,i,0.1,0,0.5,parent,2020-09-30_10h14.50.100,ANT,2020.1.3,Win32,60,,,,,i,1,1.101495,,,,,,1.6,,,,,,1,1,49,5,1
,,,,,,,,ANT_images/center.png,ANT_images/neu_r.png,-0.25,i,0.7,0.1,1.2,parent,2020-09-30_10h14.50.100,ANT,2020.1.3,Win32,60,,,,,,0,,,,,,,1,,,,,,1,2,50,19,1
,,,,,,,,ANT_images/none.png,ANT_images/cong_l.png,0.25,e,0.1,0,0.5,parent,2020-09-30_10h14.50.100,ANT,2020.1.3,Win32,60,,,,,e,1,0.97147,,,,,,1.6,,,,,,1,3,51,2,1
,,,,,,,,ANT_images/down.png,ANT_images/neu_l.png,-0.25,e,0.8,0.1,1.3,parent,2020-09-30_10h14.50.100,ANT,2020.1.3,Win32,60,,,,,,0,,,,,,,0.9,,,,,,1,4,52,42,1
,,,,,,,,ANT_images/down.png,ANT_images/cong_r.png,-0.25,i,0.4,0.1,0.9,parent,2020-09-30_10h14.50.100,ANT,2020.1.3,Win32,60,,,,,i,1,1.324625,,,,,,1.3,,,,,,1,5,53,45,1
,,,,,,,,ANT_images/center.png,ANT_images/incong_l.png,0.25,e,0.5,0.1,1,parent,2020-09-30_10h14.50.100,ANT,2020.1.3,Win32,60,,,,,,0,,,,,,,1.2,,,,,,1,6,54,16,1
,,,,,,,,ANT_images/up.png,ANT_images/incong_l.png,0.25,e,0.5,0.1,1,parent,2020-09-30_10h14.50.100,ANT,2020.1.3,Win32,60,,,,,e,1,1.571435,,,,,,1.2,,,,,,1,7,55,40,1
,,,,,,,,ANT_images/double.png,ANT_images/cong_l.png,0.25,e,0.6,0.1,1.1,parent,2020-09-30_10h14.50.100,ANT,2020.1.3,Win32,60,,,,,e,1,1.56277,,,,,,1.1,,,,,,1,8,56,26,1
,,,,,,,,ANT_images/center.png,ANT_images/incong_l.png,-0.25,e,1.3,0.1,1.8,parent,2020-09-30_10h14.50.100,ANT,2020.1.3,Win32,60,,,,,,0,,,,,,,0.4,,,,,,1,9,57,22,1
,,,,,,,,ANT_images/none.png,ANT_images/incong_l.png,0.25,e,0.1,0,0.5,parent,2020-09-30_10h14.50.100,ANT,2020.1.3,Win32,60,,,,,e,1,1.179755,,,,,,1.6,,,,,,1,10,58,4,1
,,,,,,,,ANT_images/none.png,ANT_images/cong_r.png,-0.25,i,0.1,0,0.5,parent,2020-09-30_10h14.50.100,ANT,2020.1.3,Win32,60,,,,,i,1,0.951645,,,,,,1.6,,,,,,1,11,59,9,1
,,,,,,,,ANT_images/up.png,ANT_images/neu_l.png,0.25,e,1.4,0.1,1.9,parent,2020-09-30_10h14.50.100,ANT,2020.1.3,Win32,60,,,,,,0,,,,,,,0.3,,,,,,1,12,60,36,1
,,,,,,,,ANT_images/none.png,ANT_images/incong_l.png,-0.25,e,0.1,0,0.5,parent,2020-09-30_10h14.50.100,ANT,2020.1.3,Win32,60,,,,,e,1,1.11734,,,,,,1.6,,,,,,1,13,61,10,1
,,,,,,,,ANT_images/double.png,ANT_images/cong_r.png,-0.25,i,1.1,0.1,1.6,parent,2020-09-30_10h14.50.100,ANT,2020.1.3,Win32,60,,,,,,0,,,,,,,0.6,,,,,,1,14,62,33,1
,,,,,,,,ANT_images/double.png,ANT_images/neu_r.png,-0.25,i,0.7,0.1,1.2,parent,2020-09-30_10h14.50.100,ANT,2020.1.3,Win32,60,,,,,,0,,,,,,,1,,,,,,1,15,63,31,1
,,,,,,,,ANT_images/double.png,ANT_images/cong_l.png,-0.25,e,0.4,0.1,0.9,parent,2020-09-30_10h14.50.100,ANT,2020.1.3,Win32,60,,,,,e,1,1.36986,,,,,,1.3,,,,,,1,16,64,32,1
,,,,,,,,ANT_images/up.png,ANT_images/neu_r.png,0.25,i,0.8,0.1,1.3,parent,2020-09-30_10h14.50.100,ANT,2020.1.3,Win32,60,,,,,,0,,,,,,,0.9,,,,,,1,17,65,37,1
,,,,,,,,ANT_images/center.png,ANT_images/cong_l.png,-0.25,e,1.5,0.1,2,parent,2020-09-30_10h14.50.100,ANT,2020.1.3,Win32,60,,,,,,0,,,,,,,0.2,,,,,,1,18,66,20,1
,,,,,,,,ANT_images/down.png,ANT_images/incong_l.png,-0.25,e,1.3,0.1,1.8,parent,2020-09-30_10h14.50.100,ANT,2020.1.3,Win32,60,,,,,,0,,,,,,,0.4,,,,,,1,19,67,46,1
,,,,,,,,ANT_images/double.png,ANT_images/incong_r.png,0.25,i,0.9,0.1,1.4,parent,2020-09-30_10h14.50.100,ANT,2020.1.3,Win32,60,,,,,,0,,,,,,,0.8,,,,,,1,20,68,29,1
,,,,,,,,ANT_images/center.png,ANT_images/cong_r.png,-0.25,i,1.6,0.1,2.1,parent,2020-09-30_10h14.50.100,ANT,2020.1.3,Win32,60,,,,,,0,,,,,,,0.1,,,,,,1,21,69,21,1
,,,,,,,,ANT_images/center.png,ANT_images/incong_r.png,0.25,i,0.4,0.1,0.9,parent,2020-09-30_10h14.50.100,ANT,2020.1.3,Win32,60,,,,,e,0,1.257505,,,,,,1.3,,,,,,1,22,70,17,1
,,,,,,,,ANT_images/double.png,ANT_images/cong_r.png,0.25,i,1.3,0.1,1.8,parent,2020-09-30_10h14.50.100,ANT,2020.1.3,Win32,60,,,,,,0,,,,,,,0.4,,,,,,1,23,71,27,1
,,,,,,,,ANT_images/down.png,ANT_images/incong_r.png,-0.25,i,1,0.1,1.5,parent,2020-09-30_10h14.50.100,ANT,2020.1.3,Win32,60,,,,,,0,,,,,,,0.7,,,,,,1,24,72,47,1
,,,,,,,,ANT_images/double.png,ANT_images/incong_r.png,-0.25,i,1.6,0.1,2.1,parent,2020-09-30_10h14.50.100,ANT,2020.1.3,Win32,60,,,,,,0,,,,,,,0.1,,,,,,1,25,73,35,1
,,,,,,,,ANT_images/none.png,ANT_images/incong_r.png,-0.25,i,0.1,0,0.5,parent,2020-09-30_10h14.50.100,ANT,2020.1.3,Win32,60,,,,,i,1,1.199195,,,,,,1.6,,,,,,1,26,74,11,1
,,,,,,,,ANT_images/none.png,ANT_images/neu_l.png,-0.25,e,0.1,0,0.5,parent,2020-09-30_10h14.50.100,ANT,2020.1.3,Win32,60,,,,,e,1,0.97025,,,,,,1.6,,,,,,1,27,75,6,1
,,,,,,,,ANT_images/none.png,ANT_images/cong_r.png,0.25,i,0.1,0,0.5,parent,2020-09-30_10h14.50.100,ANT,2020.1.3,Win32,60,,,,,i,1,1.030275,,,,,,1.6,,,,,,1,28,76,3,1
,,,,,,,,ANT_images/down.png,ANT_images/neu_r.png,-0.25,i,0.6,0.1,1.1,parent,2020-09-30_10h14.50.100,ANT,2020.1.3,Win32,60,,,,,i,1,1.51819,,,,,,1.1,,,,,,1,29,77,43,1
,,,,,,,,ANT_images/center.png,ANT_images/neu_l.png,0.25,e,1.1,0.1,1.6,parent,2020-09-30_10h14.50.100,ANT,2020.1.3,Win32,60,,,,,,0,,,,,,,0.6,,,,,,1,30,78,12,1
,,,,,,,,ANT_images/center.png,ANT_images/neu_r.png,0.25,i,1,0.1,1.5,parent,2020-09-30_10h14.50.100,ANT,2020.1.3,Win32,60,,,,,,0,,,,,,,0.7,,,,,,1,31,79,13,1
,,,,,,,,ANT_images/center.png,ANT_images/neu_l.png,-0.25,e,0.8,0.1,1.3,parent,2020-09-30_10h14.50.100,ANT,2020.1.3,Win32,60,,,,,,0,,,,,,,0.9,,,,,,1,32,80,18,1
,,,,,,,,ANT_images/up.png,ANT_images/cong_r.png,0.25,i,1.4,0.1,1.9,parent,2020-09-30_10h14.50.100,ANT,2020.1.3,Win32,60,,,,,,0,,,,,,,0.3,,,,,,1,33,81,39,1
,,,,,,,,ANT_images/double.png,ANT_images/neu_l.png,0.25,e,0.6,0.1,1.1,parent,2020-09-30_10h14.50.100,ANT,2020.1.3,Win32,60,,,,,e,1,1.546755,,,,,,1.1,,,,,,1,34,82,24,1
,,,,,,,,ANT_images/double.png,ANT_images/neu_l.png,-0.25,e,0.5,0.1,1,parent,2020-09-30_10h14.50.100,ANT,2020.1.3,Win32,60,,,,,e,1,1.572865,,,,,,1.2,,,,,,1,35,83,30,1
,,,,,,,,ANT_images/none.png,ANT_images/neu_r.png,-0.25,i,0.1,0,0.5,parent,2020-09-30_10h14.50.100,ANT,2020.1.3,Win32,60,,,,,i,1,0.89624,,,,,,1.6,,,,,,1,36,84,7,1
,,,,,,,,ANT_images/center.png,ANT_images/cong_r.png,0.25,i,1.4,0.1,1.9,parent,2020-09-30_10h14.50.100,ANT,2020.1.3,Win32,60,,,,,,0,,,,,,,0.3,,,,,,1,37,85,15,1
,,,,,,,,ANT_images/down.png,ANT_images/cong_l.png,-0.25,e,1.2,0.1,1.7,parent,2020-09-30_10h14.50.100,ANT,2020.1.3,Win32,60,,,,,,0,,,,,,,0.5,,,,,,1,38,86,44,1
,,,,,,,,ANT_images/none.png,ANT_images/neu_l.png,0.25,e,0.1,0,0.5,parent,2020-09-30_10h14.50.100,ANT,2020.1.3,Win32,60,,,,,e,1,0.894445,,,,,,1.6,,,,,,1,39,87,0,1
,,,,,,,,ANT_images/double.png,ANT_images/incong_l.png,0.25,e,1,0.1,1.5,parent,2020-09-30_10h14.50.100,ANT,2020.1.3,Win32,60,,,,,,0,,,,,,,0.7,,,,,,1,40,88,28,1
,,,,,,,,ANT_images/none.png,ANT_images/cong_l.png,-0.25,e,0.1,0,0.5,parent,2020-09-30_10h14.50.100,ANT,2020.1.3,Win32,60,,,,,e,1,1.023765,,,,,,1.6,,,,,,1,41,89,8,1
,,,,,,,,ANT_images/none.png,ANT_images/neu_r.png,0.25,i,0.1,0,0.5,parent,2020-09-30_10h14.50.100,ANT,2020.1.3,Win32,60,,,,,i,1,0.90549,,,,,,1.6,,,,,,1,42,90,1,1
,,,,,,,,ANT_images/up.png,ANT_images/incong_r.png,0.25,i,0.9,0.1,1.4,parent,2020-09-30_10h14.50.100,ANT,2020.1.3,Win32,60,,,,,,0,,,,,,,0.8,,,,,,1,43,91,41,1
,,,,,,,,ANT_images/center.png,ANT_images/cong_l.png,0.25,e,1.2,0.1,1.7,parent,2020-09-30_10h14.50.100,ANT,2020.1.3,Win32,60,,,,,,0,,,,,,,0.5,,,,,,1,44,92,14,1
,,,,,,,,ANT_images/up.png,ANT_images/cong_l.png,0.25,e,1.5,0.1,2,parent,2020-09-30_10h14.50.100,ANT,2020.1.3,Win32,60,,,,,,0,,,,,,,0.2,,,,,,1,45,93,38,1
,,,,,,,,ANT_images/double.png,ANT_images/incong_l.png,-0.25,e,1.5,0.1,2,parent,2020-09-30_10h14.50.100,ANT,2020.1.3,Win32,60,,,,,,0,,,,,,,0.2,,,,,,1,46,94,34,1
,,,,,,,,ANT_images/center.png,ANT_images/incong_r.png,-0.25,i,0.9,0.1,1.4,parent,2020-09-30_10h14.50.100,ANT,2020.1.3,Win32,60,,,,,,0,,,,,,,0.8,,,,,,1,47,95,23,1
