pract_resp.keys,pract_resp.corr,practice.thisRepN,practice.thisTrialN,practice.thisN,practice.thisIndex,practice.ran,cue_file,flanker,pos,correct,fix1,cue_time,stimStart,participant,date,expName,psychopyVersion,OS,frameRate,pract_resp.rt,key_resp_6.keys,key_resp_6.rt,key_resp_7.keys,key_resp_7.rt,response.keys,response.corr,trials.thisRepN,trials.thisTrialN,trials.thisN,trials.thisIndex,trials.ran,postFix,response.rt,trials_2.thisRepN,trials_2.thisTrialN,trials_2.thisN,trials_2.thisIndex,trials_2.ran,trials_3.thisRepN,trials_3.thisTrialN,trials_3.thisN,trials_3.thisIndex,trials_3.ran
,0,0,0,0,2,1,ANT_images/none.png,ANT_images/cong_l.png,0.25,e,0.1,0,0.5,,2020-07-22_13h58.37.015,ANT,2020.1.3,MacIntel,60,,,,,,,,,,,,,,,,,,,,,,,,
e,1,0,1,1,0,1,ANT_images/none.png,ANT_images/cong_l.png,-0.25,e,0.1,0,0.5,,2020-07-22_13h58.37.015,ANT,2020.1.3,MacIntel,60,1.21781,,,,,,,,,,,,,,,,,,,,,,,
i,1,0,2,2,4,1,ANT_images/none.png,ANT_images/cong_r.png,0.25,i,0.1,0,0.5,,2020-07-22_13h58.37.015,ANT,2020.1.3,MacIntel,60,1.323175,,,,,,,,,,,,,,,,,,,,,,,
e,1,0,3,3,18,1,ANT_images/down.png,ANT_images/cong_l.png,-0.25,e,1.2,0.1,1.7,,2020-07-22_13h58.37.015,ANT,2020.1.3,MacIntel,60,0.87755,,,,,,,,,,,,,,,,,,,,,,,
i,1,0,4,4,1,1,ANT_images/none.png,ANT_images/incong_r.png,0.25,i,0.1,0,0.5,,2020-07-22_13h58.37.015,ANT,2020.1.3,MacIntel,60,0.836915,,,,,,,,,,,,,,,,,,,,,,,
e,1,0,5,5,19,1,ANT_images/down.png,ANT_images/incong_l.png,-0.25,e,1.3,0.1,1.8,,2020-07-22_13h58.37.015,ANT,2020.1.3,MacIntel,60,0.961035,,,,,,,,,,,,,,,,,,,,,,,
i,1,0,6,6,21,1,ANT_images/none.png,ANT_images/neu_r.png,0.25,i,0.1,0,0.5,,2020-07-22_13h58.37.015,ANT,2020.1.3,MacIntel,60,0.794255,,,,,,,,,,,,,,,,,,,,,,,
i,1,0,7,7,9,1,ANT_images/center.png,ANT_images/neu_r.png,0.25,i,1,0.1,1.5,,2020-07-22_13h58.37.015,ANT,2020.1.3,MacIntel,60,0.583295,,,,,,,,,,,,,,,,,,,,,,,
i,1,0,8,8,10,1,ANT_images/double.png,ANT_images/neu_r.png,-0.25,i,0.7,0.1,1.2,,2020-07-22_13h58.37.015,ANT,2020.1.3,MacIntel,60,0.5321,,,,,,,,,,,,,,,,,,,,,,,
i,1,0,9,9,3,1,ANT_images/none.png,ANT_images/cong_r.png,-0.25,i,0.1,0,0.5,,2020-07-22_13h58.37.015,ANT,2020.1.3,MacIntel,60,0.70132,,,,,,,,,,,,,,,,,,,,,,,
e,1,0,10,10,5,1,ANT_images/center.png,ANT_images/neu_l.png,-0.25,e,0.8,0.1,1.3,,2020-07-22_13h58.37.015,ANT,2020.1.3,MacIntel,60,0.560985,,,,,,,,,,,,,,,,,,,,,,,
i,1,0,11,11,14,1,ANT_images/double.png,ANT_images/neu_r.png,0.25,i,1.2,0.1,1.7,,2020-07-22_13h58.37.015,ANT,2020.1.3,MacIntel,60,0.45992,,,,,,,,,,,,,,,,,,,,,,,
e,1,0,12,12,15,1,ANT_images/up.png,ANT_images/cong_l.png,0.25,e,1.5,0.1,2,,2020-07-22_13h58.37.015,ANT,2020.1.3,MacIntel,60,0.435225,,,,,,,,,,,,,,,,,,,,,,,
i,0,0,13,13,12,1,ANT_images/double.png,ANT_images/incong_l.png,-0.25,e,1.5,0.1,2,,2020-07-22_13h58.37.015,ANT,2020.1.3,MacIntel,60,0.43748,,,,,,,,,,,,,,,,,,,,,,,
e,0,0,14,14,11,1,ANT_images/double.png,ANT_images/incong_r.png,-0.25,i,1.6,0.1,2.1,,2020-07-22_13h58.37.015,ANT,2020.1.3,MacIntel,60,0.50643,,,,,,,,,,,,,,,,,,,,,,,
i,1,0,15,15,23,1,ANT_images/center.png,ANT_images/incong_r.png,0.25,i,0.4,0.1,0.9,,2020-07-22_13h58.37.015,ANT,2020.1.3,MacIntel,60,0.68558,,,,,,,,,,,,,,,,,,,,,,,
i,1,0,16,16,17,1,ANT_images/up.png,ANT_images/incong_r.png,0.25,i,0.9,0.1,1.4,,2020-07-22_13h58.37.015,ANT,2020.1.3,MacIntel,60,0.627025,,,,,,,,,,,,,,,,,,,,,,,
i,1,0,17,17,6,1,ANT_images/center.png,ANT_images/neu_r.png,0.25,i,1,0.1,1.5,,2020-07-22_13h58.37.015,ANT,2020.1.3,MacIntel,60,0.516895,,,,,,,,,,,,,,,,,,,,,,,
e,1,0,18,18,22,1,ANT_images/center.png,ANT_images/incong_l.png,-0.25,e,1.3,0.1,1.8,,2020-07-22_13h58.37.015,ANT,2020.1.3,MacIntel,60,0.887695,,,,,,,,,,,,,,,,,,,,,,,
i,1,0,19,19,13,1,ANT_images/double.png,ANT_images/cong_r.png,0.25,i,1.3,0.1,1.8,,2020-07-22_13h58.37.015,ANT,2020.1.3,MacIntel,60,0.41898,,,,,,,,,,,,,,,,,,,,,,,
e,1,0,20,20,7,1,ANT_images/center.png,ANT_images/neu_l.png,0.25,e,1.1,0.1,1.6,,2020-07-22_13h58.37.015,ANT,2020.1.3,MacIntel,60,0.52445,,,,,,,,,,,,,,,,,,,,,,,
i,1,0,21,21,20,1,ANT_images/down.png,ANT_images/incong_r.png,-0.25,i,1,0.1,1.5,,2020-07-22_13h58.37.015,ANT,2020.1.3,MacIntel,60,0.789835,,,,,,,,,,,,,,,,,,,,,,,
e,1,0,22,22,16,1,ANT_images/up.png,ANT_images/neu_l.png,0.25,e,1.4,0.1,1.9,,2020-07-22_13h58.37.015,ANT,2020.1.3,MacIntel,60,0.480715,,,,,,,,,,,,,,,,,,,,,,,
i,1,0,23,23,8,1,ANT_images/center.png,ANT_images/cong_r.png,0.25,i,1.4,0.1,1.9,,2020-07-22_13h58.37.015,ANT,2020.1.3,MacIntel,60,0.383,,,,,,,,,,,,,,,,,,,,,,,
,,,,,,,ANT_images/center.png,ANT_images/neu_r.png,0.25,i,1,0.1,1.5,,2020-07-22_13h58.37.015,ANT,2020.1.3,MacIntel,60,,space,2.149795,space,6.43366,,0,0,0,0,13,1,0.7,,,,,,,,,,,
,,,,,,,ANT_images/none.png,ANT_images/incong_r.png,-0.25,i,0.1,0,0.5,,2020-07-22_13h58.37.015,ANT,2020.1.3,MacIntel,60,,,,,,i,1,0,1,1,11,1,1.6,1.244665,,,,,,,,,,
,,,,,,,ANT_images/center.png,ANT_images/incong_r.png,-0.25,i,0.9,0.1,1.4,,2020-07-22_13h58.37.015,ANT,2020.1.3,MacIntel,60,,,,,,,0,0,2,2,23,1,0.8,,,,,,,,,,,
,,,,,,,ANT_images/none.png,ANT_images/incong_l.png,-0.25,e,0.1,0,0.5,,2020-07-22_13h58.37.015,ANT,2020.1.3,MacIntel,60,,,,,,e,1,0,3,3,10,1,1.6,1.229055,,,,,,,,,,
,,,,,,,ANT_images/center.png,ANT_images/cong_r.png,0.25,i,1.4,0.1,1.9,,2020-07-22_13h58.37.015,ANT,2020.1.3,MacIntel,60,,,,,,,0,0,4,4,15,1,0.3,,,,,,,,,,,
,,,,,,,ANT_images/up.png,ANT_images/cong_r.png,0.25,i,1.4,0.1,1.9,,2020-07-22_13h58.37.015,ANT,2020.1.3,MacIntel,60,,,,,,,0,0,5,5,39,1,0.3,,,,,,,,,,,
,,,,,,,ANT_images/none.png,ANT_images/neu_r.png,-0.25,i,0.1,0,0.5,,2020-07-22_13h58.37.015,ANT,2020.1.3,MacIntel,60,,,,,,i,1,0,6,6,7,1,1.6,1.12992,,,,,,,,,,
,,,,,,,ANT_images/up.png,ANT_images/neu_l.png,0.25,e,1.4,0.1,1.9,,2020-07-22_13h58.37.015,ANT,2020.1.3,MacIntel,60,,,,,,,0,0,7,7,36,1,0.3,,,,,,,,,,,
,,,,,,,ANT_images/double.png,ANT_images/incong_r.png,0.25,i,0.9,0.1,1.4,,2020-07-22_13h58.37.015,ANT,2020.1.3,MacIntel,60,,,,,,,0,0,8,8,29,1,0.8,,,,,,,,,,,
,,,,,,,ANT_images/double.png,ANT_images/incong_l.png,0.25,e,1,0.1,1.5,,2020-07-22_13h58.37.015,ANT,2020.1.3,MacIntel,60,,,,,,,0,0,9,9,28,1,0.7,,,,,,,,,,,
,,,,,,,ANT_images/center.png,ANT_images/neu_l.png,-0.25,e,0.8,0.1,1.3,,2020-07-22_13h58.37.015,ANT,2020.1.3,MacIntel,60,,,,,,,0,0,10,10,18,1,0.9,,,,,,,,,,,
,,,,,,,ANT_images/down.png,ANT_images/cong_r.png,-0.25,i,0.4,0.1,0.9,,2020-07-22_13h58.37.015,ANT,2020.1.3,MacIntel,60,,,,,,i,1,0,11,11,45,1,1.3,1.329955,,,,,,,,,,
,,,,,,,ANT_images/up.png,ANT_images/neu_r.png,0.25,i,0.8,0.1,1.3,,2020-07-22_13h58.37.015,ANT,2020.1.3,MacIntel,60,,,,,,,0,0,12,12,37,1,0.9,,,,,,,,,,,
,,,,,,,ANT_images/center.png,ANT_images/incong_l.png,0.25,e,0.5,0.1,1,,2020-07-22_13h58.37.015,ANT,2020.1.3,MacIntel,60,,,,,,e,1,0,13,13,16,1,1.2,1.62949,,,,,,,,,,
,,,,,,,ANT_images/none.png,ANT_images/incong_l.png,0.25,e,0.1,0,0.5,,2020-07-22_13h58.37.015,ANT,2020.1.3,MacIntel,60,,,,,,e,1,0,14,14,4,1,1.6,1.024565,,,,,,,,,,
,,,,,,,ANT_images/none.png,ANT_images/incong_r.png,0.25,i,0.1,0,0.5,,2020-07-22_13h58.37.015,ANT,2020.1.3,MacIntel,60,,,,,,i,1,0,15,15,5,1,1.6,1.034035,,,,,,,,,,
,,,,,,,ANT_images/up.png,ANT_images/cong_l.png,0.25,e,1.5,0.1,2,,2020-07-22_13h58.37.015,ANT,2020.1.3,MacIntel,60,,,,,,,0,0,16,16,38,1,0.2,,,,,,,,,,,
,,,,,,,ANT_images/down.png,ANT_images/neu_r.png,-0.25,i,0.6,0.1,1.1,,2020-07-22_13h58.37.015,ANT,2020.1.3,MacIntel,60,,,,,,i,1,0,17,17,43,1,1.1,1.57719,,,,,,,,,,
,,,,,,,ANT_images/none.png,ANT_images/cong_l.png,0.25,e,0.1,0,0.5,,2020-07-22_13h58.37.015,ANT,2020.1.3,MacIntel,60,,,,,,e,1,0,18,18,2,1,1.6,0.98768,,,,,,,,,,
,,,,,,,ANT_images/down.png,ANT_images/incong_l.png,-0.25,e,1.3,0.1,1.8,,2020-07-22_13h58.37.015,ANT,2020.1.3,MacIntel,60,,,,,,,0,0,19,19,46,1,0.4,,,,,,,,,,,
,,,,,,,ANT_images/double.png,ANT_images/cong_l.png,0.25,e,0.6,0.1,1.1,,2020-07-22_13h58.37.015,ANT,2020.1.3,MacIntel,60,,,,,,e,1,0,20,20,26,1,1.1,1.5944,,,,,,,,,,
,,,,,,,ANT_images/center.png,ANT_images/cong_r.png,-0.25,i,1.6,0.1,2.1,,2020-07-22_13h58.37.015,ANT,2020.1.3,MacIntel,60,,,,,,,0,0,21,21,21,1,0.1,,,,,,,,,,,
,,,,,,,ANT_images/center.png,ANT_images/neu_r.png,-0.25,i,0.7,0.1,1.2,,2020-07-22_13h58.37.015,ANT,2020.1.3,MacIntel,60,,,,,,,0,0,22,22,19,1,1,,,,,,,,,,,
,,,,,,,ANT_images/center.png,ANT_images/neu_l.png,0.25,e,1.1,0.1,1.6,,2020-07-22_13h58.37.015,ANT,2020.1.3,MacIntel,60,,,,,,,0,0,23,23,12,1,0.6,,,,,,,,,,,
,,,,,,,ANT_images/center.png,ANT_images/cong_l.png,-0.25,e,1.5,0.1,2,,2020-07-22_13h58.37.015,ANT,2020.1.3,MacIntel,60,,,,,,,0,0,24,24,20,1,0.2,,,,,,,,,,,
,,,,,,,ANT_images/none.png,ANT_images/neu_r.png,0.25,i,0.1,0,0.5,,2020-07-22_13h58.37.015,ANT,2020.1.3,MacIntel,60,,,,,,i,1,0,25,25,1,1,1.6,1.028415,,,,,,,,,,
,,,,,,,ANT_images/double.png,ANT_images/neu_r.png,-0.25,i,0.7,0.1,1.2,,2020-07-22_13h58.37.015,ANT,2020.1.3,MacIntel,60,,,,,,,0,0,26,26,31,1,1,,,,,,,,,,,
,,,,,,,ANT_images/double.png,ANT_images/cong_l.png,-0.25,e,0.4,0.1,0.9,,2020-07-22_13h58.37.015,ANT,2020.1.3,MacIntel,60,,,,,,e,1,0,27,27,32,1,1.3,1.36435,,,,,,,,,,
,,,,,,,ANT_images/double.png,ANT_images/incong_r.png,-0.25,i,1.6,0.1,2.1,,2020-07-22_13h58.37.015,ANT,2020.1.3,MacIntel,60,,,,,,,0,0,28,28,35,1,0.1,,,,,,,,,,,
,,,,,,,ANT_images/double.png,ANT_images/cong_r.png,-0.25,i,1.1,0.1,1.6,,2020-07-22_13h58.37.015,ANT,2020.1.3,MacIntel,60,,,,,,,0,0,29,29,33,1,0.6,,,,,,,,,,,
,,,,,,,ANT_images/up.png,ANT_images/incong_r.png,0.25,i,0.9,0.1,1.4,,2020-07-22_13h58.37.015,ANT,2020.1.3,MacIntel,60,,,,,,,0,0,30,30,41,1,0.8,,,,,,,,,,,
,,,,,,,ANT_images/none.png,ANT_images/cong_l.png,-0.25,e,0.1,0,0.5,,2020-07-22_13h58.37.015,ANT,2020.1.3,MacIntel,60,,,,,,e,1,0,31,31,8,1,1.6,1.011425,,,,,,,,,,
,,,,,,,ANT_images/double.png,ANT_images/incong_l.png,-0.25,e,1.5,0.1,2,,2020-07-22_13h58.37.015,ANT,2020.1.3,MacIntel,60,,,,,,,0,0,32,32,34,1,0.2,,,,,,,,,,,
,,,,,,,ANT_images/down.png,ANT_images/incong_r.png,-0.25,i,1,0.1,1.5,,2020-07-22_13h58.37.015,ANT,2020.1.3,MacIntel,60,,,,,,,0,0,33,33,47,1,0.7,,,,,,,,,,,
,,,,,,,ANT_images/center.png,ANT_images/incong_l.png,-0.25,e,1.3,0.1,1.8,,2020-07-22_13h58.37.015,ANT,2020.1.3,MacIntel,60,,,,,,,0,0,34,34,22,1,0.4,,,,,,,,,,,
,,,,,,,ANT_images/double.png,ANT_images/neu_r.png,0.25,i,1.2,0.1,1.7,,2020-07-22_13h58.37.015,ANT,2020.1.3,MacIntel,60,,,,,,,0,0,35,35,25,1,0.5,,,,,,,,,,,
,,,,,,,ANT_images/none.png,ANT_images/neu_l.png,-0.25,e,0.1,0,0.5,,2020-07-22_13h58.37.015,ANT,2020.1.3,MacIntel,60,,,,,,e,1,0,36,36,6,1,1.6,0.99909,,,,,,,,,,
,,,,,,,ANT_images/none.png,ANT_images/cong_r.png,0.25,i,0.1,0,0.5,,2020-07-22_13h58.37.015,ANT,2020.1.3,MacIntel,60,,,,,,i,1,0,37,37,3,1,1.6,0.960615,,,,,,,,,,
,,,,,,,ANT_images/none.png,ANT_images/neu_l.png,0.25,e,0.1,0,0.5,,2020-07-22_13h58.37.015,ANT,2020.1.3,MacIntel,60,,,,,,e,1,0,38,38,0,1,1.6,0.964695,,,,,,,,,,
,,,,,,,ANT_images/down.png,ANT_images/neu_l.png,-0.25,e,0.8,0.1,1.3,,2020-07-22_13h58.37.015,ANT,2020.1.3,MacIntel,60,,,,,,,0,0,39,39,42,1,0.9,,,,,,,,,,,
,,,,,,,ANT_images/double.png,ANT_images/neu_l.png,0.25,e,0.6,0.1,1.1,,2020-07-22_13h58.37.015,ANT,2020.1.3,MacIntel,60,,,,,,,0,0,40,40,24,1,1.1,,,,,,,,,,,
,,,,,,,ANT_images/center.png,ANT_images/cong_l.png,0.25,e,1.2,0.1,1.7,,2020-07-22_13h58.37.015,ANT,2020.1.3,MacIntel,60,,,,,,,0,0,41,41,14,1,0.5,,,,,,,,,,,
,,,,,,,ANT_images/down.png,ANT_images/cong_l.png,-0.25,e,1.2,0.1,1.7,,2020-07-22_13h58.37.015,ANT,2020.1.3,MacIntel,60,,,,,,,0,0,42,42,44,1,0.5,,,,,,,,,,,
,,,,,,,ANT_images/none.png,ANT_images/cong_r.png,-0.25,i,0.1,0,0.5,,2020-07-22_13h58.37.015,ANT,2020.1.3,MacIntel,60,,,,,,i,1,0,43,43,9,1,1.6,1.03398,,,,,,,,,,
,,,,,,,ANT_images/double.png,ANT_images/cong_r.png,0.25,i,1.3,0.1,1.8,,2020-07-22_13h58.37.015,ANT,2020.1.3,MacIntel,60,,,,,,,0,0,44,44,27,1,0.4,,,,,,,,,,,
,,,,,,,ANT_images/center.png,ANT_images/incong_r.png,0.25,i,0.4,0.1,0.9,,2020-07-22_13h58.37.015,ANT,2020.1.3,MacIntel,60,,,,,,i,1,0,45,45,17,1,1.3,1.530365,,,,,,,,,,
,,,,,,,ANT_images/up.png,ANT_images/incong_l.png,0.25,e,0.5,0.1,1,,2020-07-22_13h58.37.015,ANT,2020.1.3,MacIntel,60,,,,,,i,0,0,46,46,40,1,1.2,1.399245,,,,,,,,,,
,,,,,,,ANT_images/double.png,ANT_images/neu_l.png,-0.25,e,0.5,0.1,1,,2020-07-22_13h58.37.015,ANT,2020.1.3,MacIntel,60,,,,,,e,1,0,47,47,30,1,1.2,1.51426,,,,,,,,,,
,,,,,,,ANT_images/double.png,ANT_images/incong_r.png,0.25,i,0.9,0.1,1.4,,2020-07-22_13h58.37.015,ANT,2020.1.3,MacIntel,60,,,,,,,0,1,0,48,29,1,0.8,,,,,,,,,,,
,,,,,,,ANT_images/double.png,ANT_images/neu_r.png,-0.25,i,0.7,0.1,1.2,,2020-07-22_13h58.37.015,ANT,2020.1.3,MacIntel,60,,,,,,,0,1,1,49,31,1,1,,,,,,,,,,,
,,,,,,,ANT_images/double.png,ANT_images/cong_l.png,-0.25,e,0.4,0.1,0.9,,2020-07-22_13h58.37.015,ANT,2020.1.3,MacIntel,60,,,,,,e,1,1,2,50,32,1,1.3,1.539145,,,,,,,,,,
,,,,,,,ANT_images/double.png,ANT_images/neu_l.png,-0.25,e,0.5,0.1,1,,2020-07-22_13h58.37.015,ANT,2020.1.3,MacIntel,60,,,,,,e,1,1,3,51,30,1,1.2,1.49377,,,,,,,,,,
,,,,,,,ANT_images/double.png,ANT_images/neu_r.png,0.25,i,1.2,0.1,1.7,,2020-07-22_13h58.37.015,ANT,2020.1.3,MacIntel,60,,,,,,,0,1,4,52,25,1,0.5,,,,,,,,,,,
,,,,,,,ANT_images/center.png,ANT_images/neu_l.png,-0.25,e,0.8,0.1,1.3,,2020-07-22_13h58.37.015,ANT,2020.1.3,MacIntel,60,,,,,,,0,1,5,53,18,1,0.9,,,,,,,,,,,
,,,,,,,ANT_images/up.png,ANT_images/incong_r.png,0.25,i,0.9,0.1,1.4,,2020-07-22_13h58.37.015,ANT,2020.1.3,MacIntel,60,,,,,,,0,1,6,54,41,1,0.8,,,,,,,,,,,
,,,,,,,ANT_images/center.png,ANT_images/cong_r.png,-0.25,i,1.6,0.1,2.1,,2020-07-22_13h58.37.015,ANT,2020.1.3,MacIntel,60,,,,,,,0,1,7,55,21,1,0.1,,,,,,,,,,,
,,,,,,,ANT_images/down.png,ANT_images/cong_r.png,-0.25,i,0.4,0.1,0.9,,2020-07-22_13h58.37.015,ANT,2020.1.3,MacIntel,60,,,,,,i,1,1,8,56,45,1,1.3,1.406975,,,,,,,,,,
,,,,,,,ANT_images/none.png,ANT_images/incong_r.png,0.25,i,0.1,0,0.5,,2020-07-22_13h58.37.015,ANT,2020.1.3,MacIntel,60,,,,,,i,1,1,9,57,5,1,1.6,1.25837,,,,,,,,,,
,,,,,,,ANT_images/none.png,ANT_images/neu_l.png,0.25,e,0.1,0,0.5,,2020-07-22_13h58.37.015,ANT,2020.1.3,MacIntel,60,,,,,,e,1,1,10,58,0,1,1.6,0.997025,,,,,,,,,,
,,,,,,,ANT_images/none.png,ANT_images/incong_l.png,-0.25,e,0.1,0,0.5,,2020-07-22_13h58.37.015,ANT,2020.1.3,MacIntel,60,,,,,,e,1,1,11,59,10,1,1.6,1.39259,,,,,,,,,,
,,,,,,,ANT_images/center.png,ANT_images/incong_r.png,0.25,i,0.4,0.1,0.9,,2020-07-22_13h58.37.015,ANT,2020.1.3,MacIntel,60,,,,,,i,1,1,12,60,17,1,1.3,1.55015,,,,,,,,,,
,,,,,,,ANT_images/center.png,ANT_images/cong_l.png,-0.25,e,1.5,0.1,2,,2020-07-22_13h58.37.015,ANT,2020.1.3,MacIntel,60,,,,,,,0,1,13,61,20,1,0.2,,,,,,,,,,,
,,,,,,,ANT_images/down.png,ANT_images/neu_r.png,-0.25,i,0.6,0.1,1.1,,2020-07-22_13h58.37.015,ANT,2020.1.3,MacIntel,60,,,,,,i,1,1,14,62,43,1,1.1,1.53996,,,,,,,,,,
,,,,,,,ANT_images/down.png,ANT_images/cong_l.png,-0.25,e,1.2,0.1,1.7,,2020-07-22_13h58.37.015,ANT,2020.1.3,MacIntel,60,,,,,,,0,1,15,63,44,1,0.5,,,,,,,,,,,
,,,,,,,ANT_images/none.png,ANT_images/neu_r.png,0.25,i,0.1,0,0.5,,2020-07-22_13h58.37.015,ANT,2020.1.3,MacIntel,60,,,,,,i,1,1,16,64,1,1,1.6,0.928585,,,,,,,,,,
,,,,,,,ANT_images/double.png,ANT_images/neu_l.png,0.25,e,0.6,0.1,1.1,,2020-07-22_13h58.37.015,ANT,2020.1.3,MacIntel,60,,,,,,e,1,1,17,65,24,1,1.1,1.54529,,,,,,,,,,
,,,,,,,ANT_images/center.png,ANT_images/incong_l.png,0.25,e,0.5,0.1,1,,2020-07-22_13h58.37.015,ANT,2020.1.3,MacIntel,60,,,,,,e,1,1,18,66,16,1,1.2,1.618755,,,,,,,,,,
,,,,,,,ANT_images/double.png,ANT_images/incong_l.png,0.25,e,1,0.1,1.5,,2020-07-22_13h58.37.015,ANT,2020.1.3,MacIntel,60,,,,,,,0,1,19,67,28,1,0.7,,,,,,,,,,,
,,,,,,,ANT_images/none.png,ANT_images/incong_l.png,0.25,e,0.1,0,0.5,,2020-07-22_13h58.37.015,ANT,2020.1.3,MacIntel,60,,,,,,e,1,1,20,68,4,1,1.6,1.07446,,,,,,,,,,
,,,,,,,ANT_images/down.png,ANT_images/incong_l.png,-0.25,e,1.3,0.1,1.8,,2020-07-22_13h58.37.015,ANT,2020.1.3,MacIntel,60,,,,,,,0,1,21,69,46,1,0.4,,,,,,,,,,,
,,,,,,,ANT_images/none.png,ANT_images/cong_r.png,-0.25,i,0.1,0,0.5,,2020-07-22_13h58.37.015,ANT,2020.1.3,MacIntel,60,,,,,,i,1,1,22,70,9,1,1.6,1.175155,,,,,,,,,,
,,,,,,,ANT_images/up.png,ANT_images/neu_l.png,0.25,e,1.4,0.1,1.9,,2020-07-22_13h58.37.015,ANT,2020.1.3,MacIntel,60,,,,,,,0,1,23,71,36,1,0.3,,,,,,,,,,,
,,,,,,,ANT_images/none.png,ANT_images/neu_l.png,-0.25,e,0.1,0,0.5,,2020-07-22_13h58.37.015,ANT,2020.1.3,MacIntel,60,,,,,,e,1,1,24,72,6,1,1.6,1.04746,,,,,,,,,,
,,,,,,,ANT_images/down.png,ANT_images/incong_r.png,-0.25,i,1,0.1,1.5,,2020-07-22_13h58.37.015,ANT,2020.1.3,MacIntel,60,,,,,,,0,1,25,73,47,1,0.7,,,,,,,,,,,
,,,,,,,ANT_images/center.png,ANT_images/neu_r.png,0.25,i,1,0.1,1.5,,2020-07-22_13h58.37.015,ANT,2020.1.3,MacIntel,60,,,,,,,0,1,26,74,13,1,0.7,,,,,,,,,,,
,,,,,,,ANT_images/up.png,ANT_images/neu_r.png,0.25,i,0.8,0.1,1.3,,2020-07-22_13h58.37.015,ANT,2020.1.3,MacIntel,60,,,,,,,0,1,27,75,37,1,0.9,,,,,,,,,,,
,,,,,,,ANT_images/center.png,ANT_images/neu_r.png,-0.25,i,0.7,0.1,1.2,,2020-07-22_13h58.37.015,ANT,2020.1.3,MacIntel,60,,,,,,,0,1,28,76,19,1,1,,,,,,,,,,,
,,,,,,,ANT_images/up.png,ANT_images/incong_l.png,0.25,e,0.5,0.1,1,,2020-07-22_13h58.37.015,ANT,2020.1.3,MacIntel,60,,,,,,e,1,1,29,77,40,1,1.2,1.63184,,,,,,,,,,
,,,,,,,ANT_images/up.png,ANT_images/cong_r.png,0.25,i,1.4,0.1,1.9,,2020-07-22_13h58.37.015,ANT,2020.1.3,MacIntel,60,,,,,,,0,1,30,78,39,1,0.3,,,,,,,,,,,
,,,,,,,ANT_images/double.png,ANT_images/cong_r.png,-0.25,i,1.1,0.1,1.6,,2020-07-22_13h58.37.015,ANT,2020.1.3,MacIntel,60,,,,,,,0,1,31,79,33,1,0.6,,,,,,,,,,,
,,,,,,,ANT_images/double.png,ANT_images/incong_l.png,-0.25,e,1.5,0.1,2,,2020-07-22_13h58.37.015,ANT,2020.1.3,MacIntel,60,,,,,,,0,1,32,80,34,1,0.2,,,,,,,,,,,
,,,,,,,ANT_images/none.png,ANT_images/cong_r.png,0.25,i,0.1,0,0.5,,2020-07-22_13h58.37.015,ANT,2020.1.3,MacIntel,60,,,,,,i,1,1,33,81,3,1,1.6,1.03145,,,,,,,,,,
,,,,,,,ANT_images/center.png,ANT_images/neu_l.png,0.25,e,1.1,0.1,1.6,,2020-07-22_13h58.37.015,ANT,2020.1.3,MacIntel,60,,,,,,,0,1,34,82,12,1,0.6,,,,,,,,,,,
,,,,,,,ANT_images/down.png,ANT_images/neu_l.png,-0.25,e,0.8,0.1,1.3,,2020-07-22_13h58.37.015,ANT,2020.1.3,MacIntel,60,,,,,,,0,1,35,83,42,1,0.9,,,,,,,,,,,
,,,,,,,ANT_images/center.png,ANT_images/incong_r.png,-0.25,i,0.9,0.1,1.4,,2020-07-22_13h58.37.015,ANT,2020.1.3,MacIntel,60,,,,,,,0,1,36,84,23,1,0.8,,,,,,,,,,,
,,,,,,,ANT_images/double.png,ANT_images/cong_l.png,0.25,e,0.6,0.1,1.1,,2020-07-22_13h58.37.015,ANT,2020.1.3,MacIntel,60,,,,,,,0,1,37,85,26,1,1.1,,,,,,,,,,,
,,,,,,,ANT_images/none.png,ANT_images/cong_l.png,0.25,e,0.1,0,0.5,,2020-07-22_13h58.37.015,ANT,2020.1.3,MacIntel,60,,,,,,e,1,1,38,86,2,1,1.6,1.034185,,,,,,,,,,
,,,,,,,ANT_images/up.png,ANT_images/cong_l.png,0.25,e,1.5,0.1,2,,2020-07-22_13h58.37.015,ANT,2020.1.3,MacIntel,60,,,,,,,0,1,39,87,38,1,0.2,,,,,,,,,,,
,,,,,,,ANT_images/none.png,ANT_images/cong_l.png,-0.25,e,0.1,0,0.5,,2020-07-22_13h58.37.015,ANT,2020.1.3,MacIntel,60,,,,,,e,1,1,40,88,8,1,1.6,1.079275,,,,,,,,,,
,,,,,,,ANT_images/none.png,ANT_images/incong_r.png,-0.25,i,0.1,0,0.5,,2020-07-22_13h58.37.015,ANT,2020.1.3,MacIntel,60,,,,,,i,1,1,41,89,11,1,1.6,1.13212,,,,,,,,,,
,,,,,,,ANT_images/double.png,ANT_images/cong_r.png,0.25,i,1.3,0.1,1.8,,2020-07-22_13h58.37.015,ANT,2020.1.3,MacIntel,60,,,,,,,0,1,42,90,27,1,0.4,,,,,,,,,,,
,,,,,,,ANT_images/center.png,ANT_images/cong_l.png,0.25,e,1.2,0.1,1.7,,2020-07-22_13h58.37.015,ANT,2020.1.3,MacIntel,60,,,,,,,0,1,43,91,14,1,0.5,,,,,,,,,,,
,,,,,,,ANT_images/center.png,ANT_images/cong_r.png,0.25,i,1.4,0.1,1.9,,2020-07-22_13h58.37.015,ANT,2020.1.3,MacIntel,60,,,,,,,0,1,44,92,15,1,0.3,,,,,,,,,,,
,,,,,,,ANT_images/center.png,ANT_images/incong_l.png,-0.25,e,1.3,0.1,1.8,,2020-07-22_13h58.37.015,ANT,2020.1.3,MacIntel,60,,,,,,,0,1,45,93,22,1,0.4,,,,,,,,,,,
,,,,,,,ANT_images/double.png,ANT_images/incong_r.png,-0.25,i,1.6,0.1,2.1,,2020-07-22_13h58.37.015,ANT,2020.1.3,MacIntel,60,,,,,,,0,1,46,94,35,1,0.1,,,,,,,,,,,
,,,,,,,ANT_images/none.png,ANT_images/neu_r.png,-0.25,i,0.1,0,0.5,,2020-07-22_13h58.37.015,ANT,2020.1.3,MacIntel,60,,,,,,i,1,1,47,95,7,1,1.6,1.067895,,,,,,,,,,
,,,,,,,,,,,,,,,2020-07-22_13h58.37.015,ANT,2020.1.3,MacIntel,60,,,,,,,,,,,,,,,0,0,0,0,1,,,,,
,,,,,,,ANT_images/double.png,ANT_images/neu_l.png,0.25,e,0.6,0.1,1.1,,2020-07-22_13h58.37.015,ANT,2020.1.3,MacIntel,60,,,,,,,0,0,0,0,24,1,1.1,,,,,,,,,,,
,,,,,,,ANT_images/center.png,ANT_images/cong_l.png,0.25,e,1.2,0.1,1.7,,2020-07-22_13h58.37.015,ANT,2020.1.3,MacIntel,60,,,,,,,0,0,1,1,14,1,0.5,,,,,,,,,,,
,,,,,,,ANT_images/center.png,ANT_images/cong_r.png,0.25,i,1.4,0.1,1.9,,2020-07-22_13h58.37.015,ANT,2020.1.3,MacIntel,60,,,,,,,0,0,2,2,15,1,0.3,,,,,,,,,,,
,,,,,,,ANT_images/center.png,ANT_images/cong_r.png,-0.25,i,1.6,0.1,2.1,,2020-07-22_13h58.37.015,ANT,2020.1.3,MacIntel,60,,,,,,,0,0,3,3,21,1,0.1,,,,,,,,,,,
,,,,,,,ANT_images/center.png,ANT_images/neu_r.png,0.25,i,1,0.1,1.5,,2020-07-22_13h58.37.015,ANT,2020.1.3,MacIntel,60,,,,,,,0,0,4,4,13,1,0.7,,,,,,,,,,,
,,,,,,,ANT_images/up.png,ANT_images/incong_r.png,0.25,i,0.9,0.1,1.4,,2020-07-22_13h58.37.015,ANT,2020.1.3,MacIntel,60,,,,,,,0,0,5,5,41,1,0.8,,,,,,,,,,,
,,,,,,,ANT_images/none.png,ANT_images/cong_r.png,0.25,i,0.1,0,0.5,,2020-07-22_13h58.37.015,ANT,2020.1.3,MacIntel,60,,,,,,i,1,0,6,6,3,1,1.6,0.962705,,,,,,,,,,
,,,,,,,ANT_images/none.png,ANT_images/neu_l.png,0.25,e,0.1,0,0.5,,2020-07-22_13h58.37.015,ANT,2020.1.3,MacIntel,60,,,,,,e,1,0,7,7,0,1,1.6,0.897195,,,,,,,,,,
,,,,,,,ANT_images/none.png,ANT_images/cong_l.png,-0.25,e,0.1,0,0.5,,2020-07-22_13h58.37.015,ANT,2020.1.3,MacIntel,60,,,,,,e,1,0,8,8,8,1,1.6,1.14136,,,,,,,,,,
,,,,,,,ANT_images/down.png,ANT_images/neu_l.png,-0.25,e,0.8,0.1,1.3,,2020-07-22_13h58.37.015,ANT,2020.1.3,MacIntel,60,,,,,,,0,0,9,9,42,1,0.9,,,,,,,,,,,
,,,,,,,ANT_images/none.png,ANT_images/incong_l.png,0.25,e,0.1,0,0.5,,2020-07-22_13h58.37.015,ANT,2020.1.3,MacIntel,60,,,,,,e,1,0,10,10,4,1,1.6,1.17951,,,,,,,,,,
,,,,,,,ANT_images/none.png,ANT_images/neu_l.png,-0.25,e,0.1,0,0.5,,2020-07-22_13h58.37.015,ANT,2020.1.3,MacIntel,60,,,,,,e,1,0,11,11,6,1,1.6,1.18078,,,,,,,,,,
,,,,,,,ANT_images/double.png,ANT_images/neu_r.png,0.25,i,1.2,0.1,1.7,,2020-07-22_13h58.37.015,ANT,2020.1.3,MacIntel,60,,,,,,,0,0,12,12,25,1,0.5,,,,,,,,,,,
,,,,,,,ANT_images/down.png,ANT_images/incong_l.png,-0.25,e,1.3,0.1,1.8,,2020-07-22_13h58.37.015,ANT,2020.1.3,MacIntel,60,,,,,,,0,0,13,13,46,1,0.4,,,,,,,,,,,
,,,,,,,ANT_images/double.png,ANT_images/cong_r.png,0.25,i,1.3,0.1,1.8,,2020-07-22_13h58.37.015,ANT,2020.1.3,MacIntel,60,,,,,,,0,0,14,14,27,1,0.4,,,,,,,,,,,
,,,,,,,ANT_images/none.png,ANT_images/cong_r.png,-0.25,i,0.1,0,0.5,,2020-07-22_13h58.37.015,ANT,2020.1.3,MacIntel,60,,,,,,i,1,0,15,15,9,1,1.6,1.030495,,,,,,,,,,
,,,,,,,ANT_images/none.png,ANT_images/incong_r.png,0.25,i,0.1,0,0.5,,2020-07-22_13h58.37.015,ANT,2020.1.3,MacIntel,60,,,,,,i,1,0,16,16,5,1,1.6,1.19571,,,,,,,,,,
,,,,,,,ANT_images/up.png,ANT_images/cong_r.png,0.25,i,1.4,0.1,1.9,,2020-07-22_13h58.37.015,ANT,2020.1.3,MacIntel,60,,,,,,,0,0,17,17,39,1,0.3,,,,,,,,,,,
,,,,,,,ANT_images/center.png,ANT_images/neu_l.png,-0.25,e,0.8,0.1,1.3,,2020-07-22_13h58.37.015,ANT,2020.1.3,MacIntel,60,,,,,,,0,0,18,18,18,1,0.9,,,,,,,,,,,
,,,,,,,ANT_images/center.png,ANT_images/incong_l.png,0.25,e,0.5,0.1,1,,2020-07-22_13h58.37.015,ANT,2020.1.3,MacIntel,60,,,,,,e,1,0,19,19,16,1,1.2,1.526675,,,,,,,,,,
,,,,,,,ANT_images/double.png,ANT_images/neu_l.png,-0.25,e,0.5,0.1,1,,2020-07-22_13h58.37.015,ANT,2020.1.3,MacIntel,60,,,,,,e,1,0,20,20,30,1,1.2,1.61284,,,,,,,,,,
,,,,,,,ANT_images/none.png,ANT_images/incong_r.png,-0.25,i,0.1,0,0.5,,2020-07-22_13h58.37.015,ANT,2020.1.3,MacIntel,60,,,,,,i,1,0,21,21,11,1,1.6,1.204125,,,,,,,,,,
,,,,,,,ANT_images/center.png,ANT_images/neu_l.png,0.25,e,1.1,0.1,1.6,,2020-07-22_13h58.37.015,ANT,2020.1.3,MacIntel,60,,,,,,,0,0,22,22,12,1,0.6,,,,,,,,,,,
,,,,,,,ANT_images/down.png,ANT_images/cong_l.png,-0.25,e,1.2,0.1,1.7,,2020-07-22_13h58.37.015,ANT,2020.1.3,MacIntel,60,,,,,,,0,0,23,23,44,1,0.5,,,,,,,,,,,
,,,,,,,ANT_images/center.png,ANT_images/cong_l.png,-0.25,e,1.5,0.1,2,,2020-07-22_13h58.37.015,ANT,2020.1.3,MacIntel,60,,,,,,,0,0,24,24,20,1,0.2,,,,,,,,,,,
,,,,,,,ANT_images/center.png,ANT_images/incong_r.png,-0.25,i,0.9,0.1,1.4,,2020-07-22_13h58.37.015,ANT,2020.1.3,MacIntel,60,,,,,,,0,0,25,25,23,1,0.8,,,,,,,,,,,
,,,,,,,ANT_images/up.png,ANT_images/neu_r.png,0.25,i,0.8,0.1,1.3,,2020-07-22_13h58.37.015,ANT,2020.1.3,MacIntel,60,,,,,,,0,0,26,26,37,1,0.9,,,,,,,,,,,
,,,,,,,ANT_images/double.png,ANT_images/cong_r.png,-0.25,i,1.1,0.1,1.6,,2020-07-22_13h58.37.015,ANT,2020.1.3,MacIntel,60,,,,,,,0,0,27,27,33,1,0.6,,,,,,,,,,,
,,,,,,,ANT_images/none.png,ANT_images/neu_r.png,0.25,i,0.1,0,0.5,,2020-07-22_13h58.37.015,ANT,2020.1.3,MacIntel,60,,,,,,i,1,0,28,28,1,1,1.6,0.96498,,,,,,,,,,
,,,,,,,ANT_images/up.png,ANT_images/cong_l.png,0.25,e,1.5,0.1,2,,2020-07-22_13h58.37.015,ANT,2020.1.3,MacIntel,60,,,,,,,0,0,29,29,38,1,0.2,,,,,,,,,,,
,,,,,,,ANT_images/double.png,ANT_images/incong_r.png,0.25,i,0.9,0.1,1.4,,2020-07-22_13h58.37.015,ANT,2020.1.3,MacIntel,60,,,,,,,0,0,30,30,29,1,0.8,,,,,,,,,,,
,,,,,,,ANT_images/double.png,ANT_images/neu_r.png,-0.25,i,0.7,0.1,1.2,,2020-07-22_13h58.37.015,ANT,2020.1.3,MacIntel,60,,,,,,,0,0,31,31,31,1,1,,,,,,,,,,,
,,,,,,,ANT_images/down.png,ANT_images/neu_r.png,-0.25,i,0.6,0.1,1.1,,2020-07-22_13h58.37.015,ANT,2020.1.3,MacIntel,60,,,,,,i,1,0,32,32,43,1,1.1,1.584905,,,,,,,,,,
,,,,,,,ANT_images/down.png,ANT_images/cong_r.png,-0.25,i,0.4,0.1,0.9,,2020-07-22_13h58.37.015,ANT,2020.1.3,MacIntel,60,,,,,,i,1,0,33,33,45,1,1.3,1.44431,,,,,,,,,,
,,,,,,,ANT_images/double.png,ANT_images/incong_r.png,-0.25,i,1.6,0.1,2.1,,2020-07-22_13h58.37.015,ANT,2020.1.3,MacIntel,60,,,,,,,0,0,34,34,35,1,0.1,,,,,,,,,,,
,,,,,,,ANT_images/double.png,ANT_images/incong_l.png,-0.25,e,1.5,0.1,2,,2020-07-22_13h58.37.015,ANT,2020.1.3,MacIntel,60,,,,,,,0,0,35,35,34,1,0.2,,,,,,,,,,,
,,,,,,,ANT_images/double.png,ANT_images/cong_l.png,-0.25,e,0.4,0.1,0.9,,2020-07-22_13h58.37.015,ANT,2020.1.3,MacIntel,60,,,,,,e,1,0,36,36,32,1,1.3,1.324115,,,,,,,,,,
,,,,,,,ANT_images/down.png,ANT_images/incong_r.png,-0.25,i,1,0.1,1.5,,2020-07-22_13h58.37.015,ANT,2020.1.3,MacIntel,60,,,,,,,0,0,37,37,47,1,0.7,,,,,,,,,,,
,,,,,,,ANT_images/double.png,ANT_images/cong_l.png,0.25,e,0.6,0.1,1.1,,2020-07-22_13h58.37.015,ANT,2020.1.3,MacIntel,60,,,,,,,0,0,38,38,26,1,1.1,,,,,,,,,,,
,,,,,,,ANT_images/none.png,ANT_images/neu_r.png,-0.25,i,0.1,0,0.5,,2020-07-22_13h58.37.015,ANT,2020.1.3,MacIntel,60,,,,,,i,1,0,39,39,7,1,1.6,0.95094,,,,,,,,,,
,,,,,,,ANT_images/up.png,ANT_images/neu_l.png,0.25,e,1.4,0.1,1.9,,2020-07-22_13h58.37.015,ANT,2020.1.3,MacIntel,60,,,,,,,0,0,40,40,36,1,0.3,,,,,,,,,,,
,,,,,,,ANT_images/none.png,ANT_images/cong_l.png,0.25,e,0.1,0,0.5,,2020-07-22_13h58.37.015,ANT,2020.1.3,MacIntel,60,,,,,,e,1,0,41,41,2,1,1.6,0.998035,,,,,,,,,,
,,,,,,,ANT_images/center.png,ANT_images/incong_r.png,0.25,i,0.4,0.1,0.9,,2020-07-22_13h58.37.015,ANT,2020.1.3,MacIntel,60,,,,,,i,1,0,42,42,17,1,1.3,1.48083,,,,,,,,,,
,,,,,,,ANT_images/up.png,ANT_images/incong_l.png,0.25,e,0.5,0.1,1,,2020-07-22_13h58.37.015,ANT,2020.1.3,MacIntel,60,,,,,,e,1,0,43,43,40,1,1.2,1.47754,,,,,,,,,,
,,,,,,,ANT_images/none.png,ANT_images/incong_l.png,-0.25,e,0.1,0,0.5,,2020-07-22_13h58.37.015,ANT,2020.1.3,MacIntel,60,,,,,,e,1,0,44,44,10,1,1.6,1.409475,,,,,,,,,,
,,,,,,,ANT_images/center.png,ANT_images/neu_r.png,-0.25,i,0.7,0.1,1.2,,2020-07-22_13h58.37.015,ANT,2020.1.3,MacIntel,60,,,,,,i,1,0,45,45,19,1,1,1.628065,,,,,,,,,,
,,,,,,,ANT_images/double.png,ANT_images/incong_l.png,0.25,e,1,0.1,1.5,,2020-07-22_13h58.37.015,ANT,2020.1.3,MacIntel,60,,,,,,,0,0,46,46,28,1,0.7,,,,,,,,,,,
,,,,,,,ANT_images/center.png,ANT_images/incong_l.png,-0.25,e,1.3,0.1,1.8,,2020-07-22_13h58.37.015,ANT,2020.1.3,MacIntel,60,,,,,,,0,0,47,47,22,1,0.4,,,,,,,,,,,
,,,,,,,ANT_images/double.png,ANT_images/incong_r.png,-0.25,i,1.6,0.1,2.1,,2020-07-22_13h58.37.015,ANT,2020.1.3,MacIntel,60,,,,,,,0,1,0,48,35,1,0.1,,,,,,,,,,,
,,,,,,,ANT_images/center.png,ANT_images/neu_r.png,-0.25,i,0.7,0.1,1.2,,2020-07-22_13h58.37.015,ANT,2020.1.3,MacIntel,60,,,,,,i,1,1,1,49,19,1,1,1.64131,,,,,,,,,,
,,,,,,,ANT_images/none.png,ANT_images/cong_r.png,0.25,i,0.1,0,0.5,,2020-07-22_13h58.37.015,ANT,2020.1.3,MacIntel,60,,,,,,i,1,1,2,50,3,1,1.6,1.11393,,,,,,,,,,
,,,,,,,ANT_images/center.png,ANT_images/incong_r.png,-0.25,i,0.9,0.1,1.4,,2020-07-22_13h58.37.015,ANT,2020.1.3,MacIntel,60,,,,,,,0,1,3,51,23,1,0.8,,,,,,,,,,,
,,,,,,,ANT_images/none.png,ANT_images/incong_r.png,0.25,i,0.1,0,0.5,,2020-07-22_13h58.37.015,ANT,2020.1.3,MacIntel,60,,,,,,i,1,1,4,52,5,1,1.6,1.27434,,,,,,,,,,
,,,,,,,ANT_images/center.png,ANT_images/neu_r.png,0.25,i,1,0.1,1.5,,2020-07-22_13h58.37.015,ANT,2020.1.3,MacIntel,60,,,,,,,0,1,5,53,13,1,0.7,,,,,,,,,,,
,,,,,,,ANT_images/none.png,ANT_images/incong_l.png,0.25,e,0.1,0,0.5,,2020-07-22_13h58.37.015,ANT,2020.1.3,MacIntel,60,,,,,,e,1,1,6,54,4,1,1.6,1.27218,,,,,,,,,,
,,,,,,,ANT_images/up.png,ANT_images/incong_r.png,0.25,i,0.9,0.1,1.4,,2020-07-22_13h58.37.015,ANT,2020.1.3,MacIntel,60,,,,,,,0,1,7,55,41,1,0.8,,,,,,,,,,,
,,,,,,,ANT_images/down.png,ANT_images/neu_r.png,-0.25,i,0.6,0.1,1.1,,2020-07-22_13h58.37.015,ANT,2020.1.3,MacIntel,60,,,,,,i,1,1,8,56,43,1,1.1,1.49894,,,,,,,,,,
,,,,,,,ANT_images/down.png,ANT_images/incong_l.png,-0.25,e,1.3,0.1,1.8,,2020-07-22_13h58.37.015,ANT,2020.1.3,MacIntel,60,,,,,,,0,1,9,57,46,1,0.4,,,,,,,,,,,
,,,,,,,ANT_images/double.png,ANT_images/incong_l.png,-0.25,e,1.5,0.1,2,,2020-07-22_13h58.37.015,ANT,2020.1.3,MacIntel,60,,,,,,,0,1,10,58,34,1,0.2,,,,,,,,,,,
,,,,,,,ANT_images/up.png,ANT_images/cong_r.png,0.25,i,1.4,0.1,1.9,,2020-07-22_13h58.37.015,ANT,2020.1.3,MacIntel,60,,,,,,,0,1,11,59,39,1,0.3,,,,,,,,,,,
,,,,,,,ANT_images/center.png,ANT_images/incong_l.png,0.25,e,0.5,0.1,1,,2020-07-22_13h58.37.015,ANT,2020.1.3,MacIntel,60,,,,,,e,1,1,12,60,16,1,1.2,1.49765,,,,,,,,,,
,,,,,,,ANT_images/center.png,ANT_images/cong_r.png,0.25,i,1.4,0.1,1.9,,2020-07-22_13h58.37.015,ANT,2020.1.3,MacIntel,60,,,,,,,0,1,13,61,15,1,0.3,,,,,,,,,,,
,,,,,,,ANT_images/none.png,ANT_images/neu_l.png,0.25,e,0.1,0,0.5,,2020-07-22_13h58.37.015,ANT,2020.1.3,MacIntel,60,,,,,,e,1,1,14,62,0,1,1.6,1.02823,,,,,,,,,,
,,,,,,,ANT_images/none.png,ANT_images/cong_r.png,-0.25,i,0.1,0,0.5,,2020-07-22_13h58.37.015,ANT,2020.1.3,MacIntel,60,,,,,,i,1,1,15,63,9,1,1.6,0.99474,,,,,,,,,,
,,,,,,,ANT_images/up.png,ANT_images/neu_r.png,0.25,i,0.8,0.1,1.3,,2020-07-22_13h58.37.015,ANT,2020.1.3,MacIntel,60,,,,,,,0,1,16,64,37,1,0.9,,,,,,,,,,,
,,,,,,,ANT_images/double.png,ANT_images/cong_r.png,0.25,i,1.3,0.1,1.8,,2020-07-22_13h58.37.015,ANT,2020.1.3,MacIntel,60,,,,,,,0,1,17,65,27,1,0.4,,,,,,,,,,,
,,,,,,,ANT_images/none.png,ANT_images/incong_r.png,-0.25,i,0.1,0,0.5,,2020-07-22_13h58.37.015,ANT,2020.1.3,MacIntel,60,,,,,,i,1,1,18,66,11,1,1.6,1.183045,,,,,,,,,,
,,,,,,,ANT_images/double.png,ANT_images/cong_l.png,0.25,e,0.6,0.1,1.1,,2020-07-22_13h58.37.015,ANT,2020.1.3,MacIntel,60,,,,,,e,1,1,19,67,26,1,1.1,1.528335,,,,,,,,,,
,,,,,,,ANT_images/double.png,ANT_images/neu_l.png,-0.25,e,0.5,0.1,1,,2020-07-22_13h58.37.015,ANT,2020.1.3,MacIntel,60,,,,,,e,1,1,20,68,30,1,1.2,1.535965,,,,,,,,,,
,,,,,,,ANT_images/down.png,ANT_images/neu_l.png,-0.25,e,0.8,0.1,1.3,,2020-07-22_13h58.37.015,ANT,2020.1.3,MacIntel,60,,,,,,,0,1,21,69,42,1,0.9,,,,,,,,,,,
,,,,,,,ANT_images/none.png,ANT_images/neu_r.png,0.25,i,0.1,0,0.5,,2020-07-22_13h58.37.015,ANT,2020.1.3,MacIntel,60,,,,,,i,1,1,22,70,1,1,1.6,0.976925,,,,,,,,,,
,,,,,,,ANT_images/center.png,ANT_images/incong_r.png,0.25,i,0.4,0.1,0.9,,2020-07-22_13h58.37.015,ANT,2020.1.3,MacIntel,60,,,,,,i,1,1,23,71,17,1,1.3,1.530395,,,,,,,,,,
,,,,,,,ANT_images/down.png,ANT_images/cong_l.png,-0.25,e,1.2,0.1,1.7,,2020-07-22_13h58.37.015,ANT,2020.1.3,MacIntel,60,,,,,,,0,1,24,72,44,1,0.5,,,,,,,,,,,
,,,,,,,ANT_images/center.png,ANT_images/incong_l.png,-0.25,e,1.3,0.1,1.8,,2020-07-22_13h58.37.015,ANT,2020.1.3,MacIntel,60,,,,,,,0,1,25,73,22,1,0.4,,,,,,,,,,,
,,,,,,,ANT_images/down.png,ANT_images/incong_r.png,-0.25,i,1,0.1,1.5,,2020-07-22_13h58.37.015,ANT,2020.1.3,MacIntel,60,,,,,,,0,1,26,74,47,1,0.7,,,,,,,,,,,
,,,,,,,ANT_images/double.png,ANT_images/incong_l.png,0.25,e,1,0.1,1.5,,2020-07-22_13h58.37.015,ANT,2020.1.3,MacIntel,60,,,,,,,0,1,27,75,28,1,0.7,,,,,,,,,,,
,,,,,,,ANT_images/up.png,ANT_images/cong_l.png,0.25,e,1.5,0.1,2,,2020-07-22_13h58.37.015,ANT,2020.1.3,MacIntel,60,,,,,,,0,1,28,76,38,1,0.2,,,,,,,,,,,
,,,,,,,ANT_images/up.png,ANT_images/incong_l.png,0.25,e,0.5,0.1,1,,2020-07-22_13h58.37.015,ANT,2020.1.3,MacIntel,60,,,,,,e,1,1,29,77,40,1,1.2,1.515295,,,,,,,,,,
,,,,,,,ANT_images/center.png,ANT_images/neu_l.png,0.25,e,1.1,0.1,1.6,,2020-07-22_13h58.37.015,ANT,2020.1.3,MacIntel,60,,,,,,,0,1,30,78,12,1,0.6,,,,,,,,,,,
,,,,,,,ANT_images/none.png,ANT_images/neu_r.png,-0.25,i,0.1,0,0.5,,2020-07-22_13h58.37.015,ANT,2020.1.3,MacIntel,60,,,,,,i,1,1,31,79,7,1,1.6,0.995125,,,,,,,,,,
,,,,,,,ANT_images/none.png,ANT_images/incong_l.png,-0.25,e,0.1,0,0.5,,2020-07-22_13h58.37.015,ANT,2020.1.3,MacIntel,60,,,,,,e,1,1,32,80,10,1,1.6,1.13324,,,,,,,,,,
,,,,,,,ANT_images/double.png,ANT_images/cong_r.png,-0.25,i,1.1,0.1,1.6,,2020-07-22_13h58.37.015,ANT,2020.1.3,MacIntel,60,,,,,,,0,1,33,81,33,1,0.6,,,,,,,,,,,
,,,,,,,ANT_images/double.png,ANT_images/neu_r.png,0.25,i,1.2,0.1,1.7,,2020-07-22_13h58.37.015,ANT,2020.1.3,MacIntel,60,,,,,,,0,1,34,82,25,1,0.5,,,,,,,,,,,
,,,,,,,ANT_images/none.png,ANT_images/cong_l.png,-0.25,e,0.1,0,0.5,,2020-07-22_13h58.37.015,ANT,2020.1.3,MacIntel,60,,,,,,e,1,1,35,83,8,1,1.6,1.028805,,,,,,,,,,
,,,,,,,ANT_images/double.png,ANT_images/incong_r.png,0.25,i,0.9,0.1,1.4,,2020-07-22_13h58.37.015,ANT,2020.1.3,MacIntel,60,,,,,,,0,1,36,84,29,1,0.8,,,,,,,,,,,
,,,,,,,ANT_images/center.png,ANT_images/cong_l.png,0.25,e,1.2,0.1,1.7,,2020-07-22_13h58.37.015,ANT,2020.1.3,MacIntel,60,,,,,,,0,1,37,85,14,1,0.5,,,,,,,,,,,
,,,,,,,ANT_images/double.png,ANT_images/neu_l.png,0.25,e,0.6,0.1,1.1,,2020-07-22_13h58.37.015,ANT,2020.1.3,MacIntel,60,,,,,,e,1,1,38,86,24,1,1.1,1.549605,,,,,,,,,,
,,,,,,,ANT_images/double.png,ANT_images/cong_l.png,-0.25,e,0.4,0.1,0.9,,2020-07-22_13h58.37.015,ANT,2020.1.3,MacIntel,60,,,,,,e,1,1,39,87,32,1,1.3,1.36195,,,,,,,,,,
,,,,,,,ANT_images/center.png,ANT_images/neu_l.png,-0.25,e,0.8,0.1,1.3,,2020-07-22_13h58.37.015,ANT,2020.1.3,MacIntel,60,,,,,,,0,1,40,88,18,1,0.9,,,,,,,,,,,
,,,,,,,ANT_images/center.png,ANT_images/cong_l.png,-0.25,e,1.5,0.1,2,,2020-07-22_13h58.37.015,ANT,2020.1.3,MacIntel,60,,,,,,,0,1,41,89,20,1,0.2,,,,,,,,,,,
,,,,,,,ANT_images/up.png,ANT_images/neu_l.png,0.25,e,1.4,0.1,1.9,,2020-07-22_13h58.37.015,ANT,2020.1.3,MacIntel,60,,,,,,,0,1,42,90,36,1,0.3,,,,,,,,,,,
,,,,,,,ANT_images/center.png,ANT_images/cong_r.png,-0.25,i,1.6,0.1,2.1,,2020-07-22_13h58.37.015,ANT,2020.1.3,MacIntel,60,,,,,,,0,1,43,91,21,1,0.1,,,,,,,,,,,
,,,,,,,ANT_images/none.png,ANT_images/neu_l.png,-0.25,e,0.1,0,0.5,,2020-07-22_13h58.37.015,ANT,2020.1.3,MacIntel,60,,,,,,e,1,1,44,92,6,1,1.6,0.97895,,,,,,,,,,
,,,,,,,ANT_images/double.png,ANT_images/neu_r.png,-0.25,i,0.7,0.1,1.2,,2020-07-22_13h58.37.015,ANT,2020.1.3,MacIntel,60,,,,,,i,1,1,45,93,31,1,1,1.644795,,,,,,,,,,
,,,,,,,ANT_images/none.png,ANT_images/cong_l.png,0.25,e,0.1,0,0.5,,2020-07-22_13h58.37.015,ANT,2020.1.3,MacIntel,60,,,,,,e,1,1,46,94,2,1,1.6,0.979145,,,,,,,,,,
,,,,,,,ANT_images/down.png,ANT_images/cong_r.png,-0.25,i,0.4,0.1,0.9,,2020-07-22_13h58.37.015,ANT,2020.1.3,MacIntel,60,,,,,,i,1,1,47,95,45,1,1.3,1.36118,,,,,,,,,,
,,,,,,,ANT_images/double.png,ANT_images/cong_l.png,-0.25,e,0.4,0.1,0.9,,2020-07-22_13h58.37.015,ANT,2020.1.3,MacIntel,60,,,,,,,0,,,,,,1.3,,,,,,,0,0,0,32,1
,,,,,,,ANT_images/up.png,ANT_images/incong_r.png,0.25,i,0.9,0.1,1.4,,2020-07-22_13h58.37.015,ANT,2020.1.3,MacIntel,60,,,,,,,0,,,,,,0.8,,,,,,,0,1,1,41,1
,,,,,,,ANT_images/down.png,ANT_images/cong_r.png,-0.25,i,0.4,0.1,0.9,,2020-07-22_13h58.37.015,ANT,2020.1.3,MacIntel,60,,,,,,i,1,,,,,,1.3,1.342905,,,,,,0,2,2,45,1
,,,,,,,ANT_images/center.png,ANT_images/incong_r.png,-0.25,i,0.9,0.1,1.4,,2020-07-22_13h58.37.015,ANT,2020.1.3,MacIntel,60,,,,,,,0,,,,,,0.8,,,,,,,0,3,3,23,1
,,,,,,,ANT_images/none.png,ANT_images/cong_l.png,0.25,e,0.1,0,0.5,,2020-07-22_13h58.37.015,ANT,2020.1.3,MacIntel,60,,,,,,e,1,,,,,,1.6,1.119385,,,,,,0,4,4,2,1
,,,,,,,ANT_images/none.png,ANT_images/neu_r.png,-0.25,i,0.1,0,0.5,,2020-07-22_13h58.37.015,ANT,2020.1.3,MacIntel,60,,,,,,i,1,,,,,,1.6,0.91081,,,,,,0,5,5,7,1
,,,,,,,ANT_images/down.png,ANT_images/cong_l.png,-0.25,e,1.2,0.1,1.7,,2020-07-22_13h58.37.015,ANT,2020.1.3,MacIntel,60,,,,,,,0,,,,,,0.5,,,,,,,0,6,6,44,1
,,,,,,,ANT_images/none.png,ANT_images/cong_l.png,-0.25,e,0.1,0,0.5,,2020-07-22_13h58.37.015,ANT,2020.1.3,MacIntel,60,,,,,,e,1,,,,,,1.6,1.030595,,,,,,0,7,7,8,1
,,,,,,,ANT_images/double.png,ANT_images/neu_r.png,0.25,i,1.2,0.1,1.7,,2020-07-22_13h58.37.015,ANT,2020.1.3,MacIntel,60,,,,,,,0,,,,,,0.5,,,,,,,0,8,8,25,1
,,,,,,,ANT_images/up.png,ANT_images/neu_l.png,0.25,e,1.4,0.1,1.9,,2020-07-22_13h58.37.015,ANT,2020.1.3,MacIntel,60,,,,,,,0,,,,,,0.3,,,,,,,0,9,9,36,1
,,,,,,,ANT_images/double.png,ANT_images/cong_r.png,-0.25,i,1.1,0.1,1.6,,2020-07-22_13h58.37.015,ANT,2020.1.3,MacIntel,60,,,,,,,0,,,,,,0.6,,,,,,,0,10,10,33,1
,,,,,,,ANT_images/none.png,ANT_images/cong_r.png,0.25,i,0.1,0,0.5,,2020-07-22_13h58.37.015,ANT,2020.1.3,MacIntel,60,,,,,,i,1,,,,,,1.6,0.97492,,,,,,0,11,11,3,1
,,,,,,,ANT_images/down.png,ANT_images/incong_r.png,-0.25,i,1,0.1,1.5,,2020-07-22_13h58.37.015,ANT,2020.1.3,MacIntel,60,,,,,,,0,,,,,,0.7,,,,,,,0,12,12,47,1
,,,,,,,ANT_images/double.png,ANT_images/incong_l.png,0.25,e,1,0.1,1.5,,2020-07-22_13h58.37.015,ANT,2020.1.3,MacIntel,60,,,,,,,0,,,,,,0.7,,,,,,,0,13,13,28,1
,,,,,,,ANT_images/center.png,ANT_images/neu_l.png,-0.25,e,0.8,0.1,1.3,,2020-07-22_13h58.37.015,ANT,2020.1.3,MacIntel,60,,,,,,,0,,,,,,0.9,,,,,,,0,14,14,18,1
,,,,,,,ANT_images/double.png,ANT_images/neu_l.png,0.25,e,0.6,0.1,1.1,,2020-07-22_13h58.37.015,ANT,2020.1.3,MacIntel,60,,,,,,e,1,,,,,,1.1,1.577165,,,,,,0,15,15,24,1
,,,,,,,ANT_images/double.png,ANT_images/neu_l.png,-0.25,e,0.5,0.1,1,,2020-07-22_13h58.37.015,ANT,2020.1.3,MacIntel,60,,,,,,e,1,,,,,,1.2,1.5175,,,,,,0,16,16,30,1
,,,,,,,ANT_images/down.png,ANT_images/incong_l.png,-0.25,e,1.3,0.1,1.8,,2020-07-22_13h58.37.015,ANT,2020.1.3,MacIntel,60,,,,,,,0,,,,,,0.4,,,,,,,0,17,17,46,1
,,,,,,,ANT_images/double.png,ANT_images/incong_r.png,-0.25,i,1.6,0.1,2.1,,2020-07-22_13h58.37.015,ANT,2020.1.3,MacIntel,60,,,,,,,0,,,,,,0.1,,,,,,,0,18,18,35,1
,,,,,,,ANT_images/up.png,ANT_images/neu_r.png,0.25,i,0.8,0.1,1.3,,2020-07-22_13h58.37.015,ANT,2020.1.3,MacIntel,60,,,,,,,0,,,,,,0.9,,,,,,,0,19,19,37,1
,,,,,,,ANT_images/double.png,ANT_images/cong_r.png,0.25,i,1.3,0.1,1.8,,2020-07-22_13h58.37.015,ANT,2020.1.3,MacIntel,60,,,,,,,0,,,,,,0.4,,,,,,,0,20,20,27,1
,,,,,,,ANT_images/center.png,ANT_images/neu_r.png,0.25,i,1,0.1,1.5,,2020-07-22_13h58.37.015,ANT,2020.1.3,MacIntel,60,,,,,,,0,,,,,,0.7,,,,,,,0,21,21,13,1
,,,,,,,ANT_images/none.png,ANT_images/incong_r.png,0.25,i,0.1,0,0.5,,2020-07-22_13h58.37.015,ANT,2020.1.3,MacIntel,60,,,,,,i,1,,,,,,1.6,1.107975,,,,,,0,22,22,5,1
,,,,,,,ANT_images/up.png,ANT_images/incong_l.png,0.25,e,0.5,0.1,1,,2020-07-22_13h58.37.015,ANT,2020.1.3,MacIntel,60,,,,,,e,1,,,,,,1.2,1.561675,,,,,,0,23,23,40,1
,,,,,,,ANT_images/center.png,ANT_images/cong_l.png,0.25,e,1.2,0.1,1.7,,2020-07-22_13h58.37.015,ANT,2020.1.3,MacIntel,60,,,,,,,0,,,,,,0.5,,,,,,,0,24,24,14,1
,,,,,,,ANT_images/double.png,ANT_images/cong_l.png,0.25,e,0.6,0.1,1.1,,2020-07-22_13h58.37.015,ANT,2020.1.3,MacIntel,60,,,,,,e,1,,,,,,1.1,1.52777,,,,,,0,25,25,26,1
,,,,,,,ANT_images/down.png,ANT_images/neu_l.png,-0.25,e,0.8,0.1,1.3,,2020-07-22_13h58.37.015,ANT,2020.1.3,MacIntel,60,,,,,,,0,,,,,,0.9,,,,,,,0,26,26,42,1
,,,,,,,ANT_images/double.png,ANT_images/neu_r.png,-0.25,i,0.7,0.1,1.2,,2020-07-22_13h58.37.015,ANT,2020.1.3,MacIntel,60,,,,,,,0,,,,,,1,,,,,,,0,27,27,31,1
,,,,,,,ANT_images/none.png,ANT_images/incong_l.png,0.25,e,0.1,0,0.5,,2020-07-22_13h58.37.015,ANT,2020.1.3,MacIntel,60,,,,,,e,1,,,,,,1.6,1.05612,,,,,,0,28,28,4,1
,,,,,,,ANT_images/center.png,ANT_images/cong_r.png,0.25,i,1.4,0.1,1.9,,2020-07-22_13h58.37.015,ANT,2020.1.3,MacIntel,60,,,,,,,0,,,,,,0.3,,,,,,,0,29,29,15,1
,,,,,,,ANT_images/center.png,ANT_images/incong_l.png,-0.25,e,1.3,0.1,1.8,,2020-07-22_13h58.37.015,ANT,2020.1.3,MacIntel,60,,,,,,,0,,,,,,0.4,,,,,,,0,30,30,22,1
,,,,,,,ANT_images/center.png,ANT_images/neu_r.png,-0.25,i,0.7,0.1,1.2,,2020-07-22_13h58.37.015,ANT,2020.1.3,MacIntel,60,,,,,,i,1,,,,,,1,1.627455,,,,,,0,31,31,19,1
,,,,,,,ANT_images/center.png,ANT_images/incong_r.png,0.25,i,0.4,0.1,0.9,,2020-07-22_13h58.37.015,ANT,2020.1.3,MacIntel,60,,,,,,i,1,,,,,,1.3,1.52823,,,,,,0,32,32,17,1
,,,,,,,ANT_images/center.png,ANT_images/neu_l.png,0.25,e,1.1,0.1,1.6,,2020-07-22_13h58.37.015,ANT,2020.1.3,MacIntel,60,,,,,,,0,,,,,,0.6,,,,,,,0,33,33,12,1
,,,,,,,ANT_images/down.png,ANT_images/neu_r.png,-0.25,i,0.6,0.1,1.1,,2020-07-22_13h58.37.015,ANT,2020.1.3,MacIntel,60,,,,,,i,1,,,,,,1.1,1.50534,,,,,,0,34,34,43,1
,,,,,,,ANT_images/none.png,ANT_images/neu_l.png,-0.25,e,0.1,0,0.5,,2020-07-22_13h58.37.015,ANT,2020.1.3,MacIntel,60,,,,,,e,1,,,,,,1.6,1.042225,,,,,,0,35,35,6,1
,,,,,,,ANT_images/center.png,ANT_images/incong_l.png,0.25,e,0.5,0.1,1,,2020-07-22_13h58.37.015,ANT,2020.1.3,MacIntel,60,,,,,,,0,,,,,,1.2,,,,,,,0,36,36,16,1
,,,,,,,ANT_images/double.png,ANT_images/incong_r.png,0.25,i,0.9,0.1,1.4,,2020-07-22_13h58.37.015,ANT,2020.1.3,MacIntel,60,,,,,,,0,,,,,,0.8,,,,,,,0,37,37,29,1
,,,,,,,ANT_images/up.png,ANT_images/cong_l.png,0.25,e,1.5,0.1,2,,2020-07-22_13h58.37.015,ANT,2020.1.3,MacIntel,60,,,,,,,0,,,,,,0.2,,,,,,,0,38,38,38,1
,,,,,,,ANT_images/center.png,ANT_images/cong_r.png,-0.25,i,1.6,0.1,2.1,,2020-07-22_13h58.37.015,ANT,2020.1.3,MacIntel,60,,,,,,,0,,,,,,0.1,,,,,,,0,39,39,21,1
,,,,,,,ANT_images/center.png,ANT_images/cong_l.png,-0.25,e,1.5,0.1,2,,2020-07-22_13h58.37.015,ANT,2020.1.3,MacIntel,60,,,,,,,0,,,,,,0.2,,,,,,,0,40,40,20,1
,,,,,,,ANT_images/double.png,ANT_images/incong_l.png,-0.25,e,1.5,0.1,2,,2020-07-22_13h58.37.015,ANT,2020.1.3,MacIntel,60,,,,,,,0,,,,,,0.2,,,,,,,0,41,41,34,1
,,,,,,,ANT_images/none.png,ANT_images/cong_r.png,-0.25,i,0.1,0,0.5,,2020-07-22_13h58.37.015,ANT,2020.1.3,MacIntel,60,,,,,,i,1,,,,,,1.6,1.14359,,,,,,0,42,42,9,1
,,,,,,,ANT_images/up.png,ANT_images/cong_r.png,0.25,i,1.4,0.1,1.9,,2020-07-22_13h58.37.015,ANT,2020.1.3,MacIntel,60,,,,,,,0,,,,,,0.3,,,,,,,0,43,43,39,1
,,,,,,,ANT_images/none.png,ANT_images/neu_l.png,0.25,e,0.1,0,0.5,,2020-07-22_13h58.37.015,ANT,2020.1.3,MacIntel,60,,,,,,e,1,,,,,,1.6,1.045245,,,,,,0,44,44,0,1
,,,,,,,ANT_images/none.png,ANT_images/neu_r.png,0.25,i,0.1,0,0.5,,2020-07-22_13h58.37.015,ANT,2020.1.3,MacIntel,60,,,,,,i,1,,,,,,1.6,0.963145,,,,,,0,45,45,1,1
,,,,,,,ANT_images/none.png,ANT_images/incong_r.png,-0.25,i,0.1,0,0.5,,2020-07-22_13h58.37.015,ANT,2020.1.3,MacIntel,60,,,,,,i,1,,,,,,1.6,1.146565,,,,,,0,46,46,11,1
,,,,,,,ANT_images/none.png,ANT_images/incong_l.png,-0.25,e,0.1,0,0.5,,2020-07-22_13h58.37.015,ANT,2020.1.3,MacIntel,60,,,,,,e,1,,,,,,1.6,1.16201,,,,,,0,47,47,10,1
,,,,,,,ANT_images/up.png,ANT_images/neu_r.png,0.25,i,0.8,0.1,1.3,,2020-07-22_13h58.37.015,ANT,2020.1.3,MacIntel,60,,,,,,,0,,,,,,0.9,,,,,,,1,0,48,37,1
,,,,,,,ANT_images/double.png,ANT_images/neu_l.png,0.25,e,0.6,0.1,1.1,,2020-07-22_13h58.37.015,ANT,2020.1.3,MacIntel,60,,,,,,e,1,,,,,,1.1,1.612575,,,,,,1,1,49,24,1
,,,,,,,ANT_images/double.png,ANT_images/incong_l.png,-0.25,e,1.5,0.1,2,,2020-07-22_13h58.37.015,ANT,2020.1.3,MacIntel,60,,,,,,,0,,,,,,0.2,,,,,,,1,2,50,34,1
,,,,,,,ANT_images/center.png,ANT_images/cong_l.png,-0.25,e,1.5,0.1,2,,2020-07-22_13h58.37.015,ANT,2020.1.3,MacIntel,60,,,,,,,0,,,,,,0.2,,,,,,,1,3,51,20,1
,,,,,,,ANT_images/center.png,ANT_images/cong_l.png,0.25,e,1.2,0.1,1.7,,2020-07-22_13h58.37.015,ANT,2020.1.3,MacIntel,60,,,,,,,0,,,,,,0.5,,,,,,,1,4,52,14,1
,,,,,,,ANT_images/double.png,ANT_images/incong_r.png,-0.25,i,1.6,0.1,2.1,,2020-07-22_13h58.37.015,ANT,2020.1.3,MacIntel,60,,,,,,,0,,,,,,0.1,,,,,,,1,5,53,35,1
,,,,,,,ANT_images/center.png,ANT_images/neu_r.png,0.25,i,1,0.1,1.5,,2020-07-22_13h58.37.015,ANT,2020.1.3,MacIntel,60,,,,,,,0,,,,,,0.7,,,,,,,1,6,54,13,1
,,,,,,,ANT_images/down.png,ANT_images/cong_r.png,-0.25,i,0.4,0.1,0.9,,2020-07-22_13h58.37.015,ANT,2020.1.3,MacIntel,60,,,,,,i,1,,,,,,1.3,1.36219,,,,,,1,7,55,45,1
,,,,,,,ANT_images/double.png,ANT_images/neu_r.png,-0.25,i,0.7,0.1,1.2,,2020-07-22_13h58.37.015,ANT,2020.1.3,MacIntel,60,,,,,,i,1,,,,,,1,1.63044,,,,,,1,8,56,31,1
,,,,,,,ANT_images/double.png,ANT_images/cong_l.png,-0.25,e,0.4,0.1,0.9,,2020-07-22_13h58.37.015,ANT,2020.1.3,MacIntel,60,,,,,,e,1,,,,,,1.3,1.479825,,,,,,1,9,57,32,1
,,,,,,,ANT_images/none.png,ANT_images/incong_r.png,-0.25,i,0.1,0,0.5,,2020-07-22_13h58.37.015,ANT,2020.1.3,MacIntel,60,,,,,,i,1,,,,,,1.6,1.14514,,,,,,1,10,58,11,1
,,,,,,,ANT_images/none.png,ANT_images/neu_l.png,0.25,e,0.1,0,0.5,,2020-07-22_13h58.37.015,ANT,2020.1.3,MacIntel,60,,,,,,e,1,,,,,,1.6,1.076605,,,,,,1,11,59,0,1
,,,,,,,ANT_images/up.png,ANT_images/incong_r.png,0.25,i,0.9,0.1,1.4,,2020-07-22_13h58.37.015,ANT,2020.1.3,MacIntel,60,,,,,,,0,,,,,,0.8,,,,,,,1,12,60,41,1
,,,,,,,ANT_images/double.png,ANT_images/cong_l.png,0.25,e,0.6,0.1,1.1,,2020-07-22_13h58.37.015,ANT,2020.1.3,MacIntel,60,,,,,,e,1,,,,,,1.1,1.5198,,,,,,1,13,61,26,1
,,,,,,,ANT_images/center.png,ANT_images/cong_r.png,0.25,i,1.4,0.1,1.9,,2020-07-22_13h58.37.015,ANT,2020.1.3,MacIntel,60,,,,,,,0,,,,,,0.3,,,,,,,1,14,62,15,1
,,,,,,,ANT_images/center.png,ANT_images/neu_r.png,-0.25,i,0.7,0.1,1.2,,2020-07-22_13h58.37.015,ANT,2020.1.3,MacIntel,60,,,,,,,0,,,,,,1,,,,,,,1,15,63,19,1
,,,,,,,ANT_images/center.png,ANT_images/neu_l.png,-0.25,e,0.8,0.1,1.3,,2020-07-22_13h58.37.015,ANT,2020.1.3,MacIntel,60,,,,,,,0,,,,,,0.9,,,,,,,1,16,64,18,1
,,,,,,,ANT_images/double.png,ANT_images/neu_r.png,0.25,i,1.2,0.1,1.7,,2020-07-22_13h58.37.015,ANT,2020.1.3,MacIntel,60,,,,,,,0,,,,,,0.5,,,,,,,1,17,65,25,1
,,,,,,,ANT_images/up.png,ANT_images/cong_l.png,0.25,e,1.5,0.1,2,,2020-07-22_13h58.37.015,ANT,2020.1.3,MacIntel,60,,,,,,,0,,,,,,0.2,,,,,,,1,18,66,38,1
,,,,,,,ANT_images/none.png,ANT_images/neu_r.png,0.25,i,0.1,0,0.5,,2020-07-22_13h58.37.015,ANT,2020.1.3,MacIntel,60,,,,,,i,1,,,,,,1.6,1.007455,,,,,,1,19,67,1,1
,,,,,,,ANT_images/double.png,ANT_images/incong_r.png,0.25,i,0.9,0.1,1.4,,2020-07-22_13h58.37.015,ANT,2020.1.3,MacIntel,60,,,,,,,0,,,,,,0.8,,,,,,,1,20,68,29,1
,,,,,,,ANT_images/double.png,ANT_images/cong_r.png,0.25,i,1.3,0.1,1.8,,2020-07-22_13h58.37.015,ANT,2020.1.3,MacIntel,60,,,,,,,0,,,,,,0.4,,,,,,,1,21,69,27,1
,,,,,,,ANT_images/center.png,ANT_images/incong_r.png,-0.25,i,0.9,0.1,1.4,,2020-07-22_13h58.37.015,ANT,2020.1.3,MacIntel,60,,,,,,,0,,,,,,0.8,,,,,,,1,22,70,23,1
,,,,,,,ANT_images/down.png,ANT_images/cong_l.png,-0.25,e,1.2,0.1,1.7,,2020-07-22_13h58.37.015,ANT,2020.1.3,MacIntel,60,,,,,,,0,,,,,,0.5,,,,,,,1,23,71,44,1
,,,,,,,ANT_images/none.png,ANT_images/cong_r.png,-0.25,i,0.1,0,0.5,,2020-07-22_13h58.37.015,ANT,2020.1.3,MacIntel,60,,,,,,i,1,,,,,,1.6,1.00088,,,,,,1,24,72,9,1
,,,,,,,ANT_images/down.png,ANT_images/incong_r.png,-0.25,i,1,0.1,1.5,,2020-07-22_13h58.37.015,ANT,2020.1.3,MacIntel,60,,,,,,,0,,,,,,0.7,,,,,,,1,25,73,47,1
,,,,,,,ANT_images/double.png,ANT_images/cong_r.png,-0.25,i,1.1,0.1,1.6,,2020-07-22_13h58.37.015,ANT,2020.1.3,MacIntel,60,,,,,,,0,,,,,,0.6,,,,,,,1,26,74,33,1
,,,,,,,ANT_images/none.png,ANT_images/neu_l.png,-0.25,e,0.1,0,0.5,,2020-07-22_13h58.37.015,ANT,2020.1.3,MacIntel,60,,,,,,e,1,,,,,,1.6,1.016765,,,,,,1,27,75,6,1
,,,,,,,ANT_images/down.png,ANT_images/neu_r.png,-0.25,i,0.6,0.1,1.1,,2020-07-22_13h58.37.015,ANT,2020.1.3,MacIntel,60,,,,,,i,1,,,,,,1.1,1.525075,,,,,,1,28,76,43,1
,,,,,,,ANT_images/none.png,ANT_images/incong_l.png,0.25,e,0.1,0,0.5,,2020-07-22_13h58.37.015,ANT,2020.1.3,MacIntel,60,,,,,,e,1,,,,,,1.6,1.19411,,,,,,1,29,77,4,1
,,,,,,,ANT_images/up.png,ANT_images/cong_r.png,0.25,i,1.4,0.1,1.9,,2020-07-22_13h58.37.015,ANT,2020.1.3,MacIntel,60,,,,,,,0,,,,,,0.3,,,,,,,1,30,78,39,1
,,,,,,,ANT_images/double.png,ANT_images/incong_l.png,0.25,e,1,0.1,1.5,,2020-07-22_13h58.37.015,ANT,2020.1.3,MacIntel,60,,,,,,,0,,,,,,0.7,,,,,,,1,31,79,28,1
,,,,,,,ANT_images/center.png,ANT_images/cong_r.png,-0.25,i,1.6,0.1,2.1,,2020-07-22_13h58.37.015,ANT,2020.1.3,MacIntel,60,,,,,,,0,,,,,,0.1,,,,,,,1,32,80,21,1
,,,,,,,ANT_images/center.png,ANT_images/neu_l.png,0.25,e,1.1,0.1,1.6,,2020-07-22_13h58.37.015,ANT,2020.1.3,MacIntel,60,,,,,,,0,,,,,,0.6,,,,,,,1,33,81,12,1
,,,,,,,ANT_images/none.png,ANT_images/cong_l.png,-0.25,e,0.1,0,0.5,,2020-07-22_13h58.37.015,ANT,2020.1.3,MacIntel,60,,,,,,e,1,,,,,,1.6,1.214625,,,,,,1,34,82,8,1
,,,,,,,ANT_images/none.png,ANT_images/incong_l.png,-0.25,e,0.1,0,0.5,,2020-07-22_13h58.37.015,ANT,2020.1.3,MacIntel,60,,,,,,e,1,,,,,,1.6,1.194915,,,,,,1,35,83,10,1
,,,,,,,ANT_images/up.png,ANT_images/neu_l.png,0.25,e,1.4,0.1,1.9,,2020-07-22_13h58.37.015,ANT,2020.1.3,MacIntel,60,,,,,,,0,,,,,,0.3,,,,,,,1,36,84,36,1
,,,,,,,ANT_images/none.png,ANT_images/incong_r.png,0.25,i,0.1,0,0.5,,2020-07-22_13h58.37.015,ANT,2020.1.3,MacIntel,60,,,,,,i,1,,,,,,1.6,1.096735,,,,,,1,37,85,5,1
,,,,,,,ANT_images/double.png,ANT_images/neu_l.png,-0.25,e,0.5,0.1,1,,2020-07-22_13h58.37.015,ANT,2020.1.3,MacIntel,60,,,,,,e,1,,,,,,1.2,1.430095,,,,,,1,38,86,30,1
,,,,,,,ANT_images/center.png,ANT_images/incong_r.png,0.25,i,0.4,0.1,0.9,,2020-07-22_13h58.37.015,ANT,2020.1.3,MacIntel,60,,,,,,i,1,,,,,,1.3,1.527575,,,,,,1,39,87,17,1
,,,,,,,ANT_images/down.png,ANT_images/neu_l.png,-0.25,e,0.8,0.1,1.3,,2020-07-22_13h58.37.015,ANT,2020.1.3,MacIntel,60,,,,,,,0,,,,,,0.9,,,,,,,1,40,88,42,1
,,,,,,,ANT_images/center.png,ANT_images/incong_l.png,0.25,e,0.5,0.1,1,,2020-07-22_13h58.37.015,ANT,2020.1.3,MacIntel,60,,,,,,e,1,,,,,,1.2,1.55578,,,,,,1,41,89,16,1
,,,,,,,ANT_images/down.png,ANT_images/incong_l.png,-0.25,e,1.3,0.1,1.8,,2020-07-22_13h58.37.015,ANT,2020.1.3,MacIntel,60,,,,,,,0,,,,,,0.4,,,,,,,1,42,90,46,1
,,,,,,,ANT_images/center.png,ANT_images/incong_l.png,-0.25,e,1.3,0.1,1.8,,2020-07-22_13h58.37.015,ANT,2020.1.3,MacIntel,60,,,,,,,0,,,,,,0.4,,,,,,,1,43,91,22,1
,,,,,,,ANT_images/none.png,ANT_images/cong_r.png,0.25,i,0.1,0,0.5,,2020-07-22_13h58.37.015,ANT,2020.1.3,MacIntel,60,,,,,,i,1,,,,,,1.6,0.98518,,,,,,1,44,92,3,1
,,,,,,,ANT_images/none.png,ANT_images/cong_l.png,0.25,e,0.1,0,0.5,,2020-07-22_13h58.37.015,ANT,2020.1.3,MacIntel,60,,,,,,e,1,,,,,,1.6,1.000405,,,,,,1,45,93,2,1
,,,,,,,ANT_images/none.png,ANT_images/neu_r.png,-0.25,i,0.1,0,0.5,,2020-07-22_13h58.37.015,ANT,2020.1.3,MacIntel,60,,,,,,i,1,,,,,,1.6,0.97973,,,,,,1,46,94,7,1
,,,,,,,ANT_images/up.png,ANT_images/incong_l.png,0.25,e,0.5,0.1,1,,2020-07-22_13h58.37.015,ANT,2020.1.3,MacIntel,60,,,,,,e,1,,,,,,1.2,1.496245,,,,,,1,47,95,40,1
