pract_resp.keys,pract_resp.corr,practice.thisRepN,practice.thisTrialN,practice.thisN,practice.thisIndex,practice.ran,cue_file,flanker,pos,correct,fix1,cue_time,stimStart,participant,date,expName,psychopyVersion,OS,frameRate,pract_resp.rt,key_resp_6.keys,key_resp_6.rt,key_resp_7.keys,key_resp_7.rt,response.keys,response.corr,trials.thisRepN,trials.thisTrialN,trials.thisN,trials.thisIndex,trials.ran,postFix,response.rt,trials_2.thisRepN,trials_2.thisTrialN,trials_2.thisN,trials_2.thisIndex,trials_2.ran,trials_3.thisRepN,trials_3.thisTrialN,trials_3.thisN,trials_3.thisIndex,trials_3.ran
,0,0,0,0,8,1,ANT_images/center.png,ANT_images/cong_r.png,0.25,i,1.4,0.1,1.9,point,2020-10-01_14h42.57.361,ANT,2020.1.3,Win32,60,,,,,,,,,,,,,,,,,,,,,,,,
i,1,0,1,1,10,1,ANT_images/double.png,ANT_images/neu_r.png,-0.25,i,0.7,0.1,1.2,point,2020-10-01_14h42.57.361,ANT,2020.1.3,Win32,60,1.26741,,,,,,,,,,,,,,,,,,,,,,,
e,1,0,2,2,16,1,ANT_images/up.png,ANT_images/neu_l.png,0.25,e,1.4,0.1,1.9,point,2020-10-01_14h42.57.361,ANT,2020.1.3,Win32,60,1.25348,,,,,,,,,,,,,,,,,,,,,,,
e,1,0,3,3,22,1,ANT_images/center.png,ANT_images/incong_l.png,-0.25,e,1.3,0.1,1.8,point,2020-10-01_14h42.57.361,ANT,2020.1.3,Win32,60,1.287775,,,,,,,,,,,,,,,,,,,,,,,
e,1,0,4,4,7,1,ANT_images/center.png,ANT_images/neu_l.png,0.25,e,1.1,0.1,1.6,point,2020-10-01_14h42.57.361,ANT,2020.1.3,Win32,60,0.975245,,,,,,,,,,,,,,,,,,,,,,,
i,1,0,5,5,11,1,ANT_images/double.png,ANT_images/incong_r.png,-0.25,i,1.6,0.1,2.1,point,2020-10-01_14h42.57.361,ANT,2020.1.3,Win32,60,1.04871,,,,,,,,,,,,,,,,,,,,,,,
i,1,0,6,6,17,1,ANT_images/up.png,ANT_images/incong_r.png,0.25,i,0.9,0.1,1.4,point,2020-10-01_14h42.57.361,ANT,2020.1.3,Win32,60,0.89786,,,,,,,,,,,,,,,,,,,,,,,
i,1,0,7,7,20,1,ANT_images/down.png,ANT_images/incong_r.png,-0.25,i,1,0.1,1.5,point,2020-10-01_14h42.57.361,ANT,2020.1.3,Win32,60,1.139125,,,,,,,,,,,,,,,,,,,,,,,
e,1,0,8,8,12,1,ANT_images/double.png,ANT_images/incong_l.png,-0.25,e,1.5,0.1,2,point,2020-10-01_14h42.57.361,ANT,2020.1.3,Win32,60,0.88846,,,,,,,,,,,,,,,,,,,,,,,
i,1,0,9,9,14,1,ANT_images/double.png,ANT_images/neu_r.png,0.25,i,1.2,0.1,1.7,point,2020-10-01_14h42.57.361,ANT,2020.1.3,Win32,60,0.753775,,,,,,,,,,,,,,,,,,,,,,,
i,1,0,10,10,1,1,ANT_images/none.png,ANT_images/incong_r.png,0.25,i,0.1,0,0.5,point,2020-10-01_14h42.57.361,ANT,2020.1.3,Win32,60,0.97266,,,,,,,,,,,,,,,,,,,,,,,
i,1,0,11,11,21,1,ANT_images/none.png,ANT_images/neu_r.png,0.25,i,0.1,0,0.5,point,2020-10-01_14h42.57.361,ANT,2020.1.3,Win32,60,0.81623,,,,,,,,,,,,,,,,,,,,,,,
e,1,0,12,12,18,1,ANT_images/down.png,ANT_images/cong_l.png,-0.25,e,1.2,0.1,1.7,point,2020-10-01_14h42.57.361,ANT,2020.1.3,Win32,60,0.938575,,,,,,,,,,,,,,,,,,,,,,,
e,1,0,13,13,15,1,ANT_images/up.png,ANT_images/cong_l.png,0.25,e,1.5,0.1,2,point,2020-10-01_14h42.57.361,ANT,2020.1.3,Win32,60,0.905825,,,,,,,,,,,,,,,,,,,,,,,
i,1,0,14,14,6,1,ANT_images/center.png,ANT_images/neu_r.png,0.25,i,1,0.1,1.5,point,2020-10-01_14h42.57.361,ANT,2020.1.3,Win32,60,0.699365,,,,,,,,,,,,,,,,,,,,,,,
i,1,0,15,15,3,1,ANT_images/none.png,ANT_images/cong_r.png,-0.25,i,0.1,0,0.5,point,2020-10-01_14h42.57.361,ANT,2020.1.3,Win32,60,1.05514,,,,,,,,,,,,,,,,,,,,,,,
i,1,0,16,16,13,1,ANT_images/double.png,ANT_images/cong_r.png,0.25,i,1.3,0.1,1.8,point,2020-10-01_14h42.57.361,ANT,2020.1.3,Win32,60,1.04123,,,,,,,,,,,,,,,,,,,,,,,
e,1,0,17,17,5,1,ANT_images/center.png,ANT_images/neu_l.png,-0.25,e,0.8,0.1,1.3,point,2020-10-01_14h42.57.361,ANT,2020.1.3,Win32,60,0.932915,,,,,,,,,,,,,,,,,,,,,,,
e,1,0,18,18,0,1,ANT_images/none.png,ANT_images/cong_l.png,-0.25,e,0.1,0,0.5,point,2020-10-01_14h42.57.361,ANT,2020.1.3,Win32,60,0.982845,,,,,,,,,,,,,,,,,,,,,,,
i,1,0,19,19,4,1,ANT_images/none.png,ANT_images/cong_r.png,0.25,i,0.1,0,0.5,point,2020-10-01_14h42.57.361,ANT,2020.1.3,Win32,60,0.75649,,,,,,,,,,,,,,,,,,,,,,,
i,1,0,20,20,9,1,ANT_images/center.png,ANT_images/neu_r.png,0.25,i,1,0.1,1.5,point,2020-10-01_14h42.57.361,ANT,2020.1.3,Win32,60,0.73674,,,,,,,,,,,,,,,,,,,,,,,
e,1,0,21,21,19,1,ANT_images/down.png,ANT_images/incong_l.png,-0.25,e,1.3,0.1,1.8,point,2020-10-01_14h42.57.361,ANT,2020.1.3,Win32,60,0.887955,,,,,,,,,,,,,,,,,,,,,,,
i,1,0,22,22,23,1,ANT_images/center.png,ANT_images/incong_r.png,0.25,i,0.4,0.1,0.9,point,2020-10-01_14h42.57.361,ANT,2020.1.3,Win32,60,0.720095,,,,,,,,,,,,,,,,,,,,,,,
e,1,0,23,23,2,1,ANT_images/none.png,ANT_images/cong_l.png,0.25,e,0.1,0,0.5,point,2020-10-01_14h42.57.361,ANT,2020.1.3,Win32,60,0.796235,,,,,,,,,,,,,,,,,,,,,,,
,,,,,,,ANT_images/double.png,ANT_images/neu_r.png,-0.25,i,0.7,0.1,1.2,point,2020-10-01_14h42.57.361,ANT,2020.1.3,Win32,60,,space,4.511855,space,8.64146,,0,0,0,0,31,1,1,,,,,,,,,,,
,,,,,,,ANT_images/center.png,ANT_images/incong_l.png,0.25,e,0.5,0.1,1,point,2020-10-01_14h42.57.361,ANT,2020.1.3,Win32,60,,,,,,,0,0,1,1,16,1,1.2,,,,,,,,,,,
,,,,,,,ANT_images/up.png,ANT_images/neu_r.png,0.25,i,0.8,0.1,1.3,point,2020-10-01_14h42.57.361,ANT,2020.1.3,Win32,60,,,,,,,0,0,2,2,37,1,0.9,,,,,,,,,,,
,,,,,,,ANT_images/none.png,ANT_images/neu_r.png,0.25,i,0.1,0,0.5,point,2020-10-01_14h42.57.361,ANT,2020.1.3,Win32,60,,,,,,i,1,0,3,3,1,1,1.6,1.34041,,,,,,,,,,
,,,,,,,ANT_images/double.png,ANT_images/cong_l.png,0.25,e,0.6,0.1,1.1,point,2020-10-01_14h42.57.361,ANT,2020.1.3,Win32,60,,,,,,,0,0,4,4,26,1,1.1,,,,,,,,,,,
,,,,,,,ANT_images/center.png,ANT_images/neu_l.png,-0.25,e,0.8,0.1,1.3,point,2020-10-01_14h42.57.361,ANT,2020.1.3,Win32,60,,,,,,,0,0,5,5,18,1,0.9,,,,,,,,,,,
,,,,,,,ANT_images/center.png,ANT_images/incong_r.png,0.25,i,0.4,0.1,0.9,point,2020-10-01_14h42.57.361,ANT,2020.1.3,Win32,60,,,,,,,0,0,6,6,17,1,1.3,,,,,,,,,,,
,,,,,,,ANT_images/double.png,ANT_images/cong_l.png,-0.25,e,0.4,0.1,0.9,point,2020-10-01_14h42.57.361,ANT,2020.1.3,Win32,60,,,,,,e,1,0,7,7,32,1,1.3,1.585275,,,,,,,,,,
,,,,,,,ANT_images/none.png,ANT_images/cong_l.png,0.25,e,0.1,0,0.5,point,2020-10-01_14h42.57.361,ANT,2020.1.3,Win32,60,,,,,,e,1,0,8,8,2,1,1.6,1.23611,,,,,,,,,,
,,,,,,,ANT_images/down.png,ANT_images/cong_l.png,-0.25,e,1.2,0.1,1.7,point,2020-10-01_14h42.57.361,ANT,2020.1.3,Win32,60,,,,,,,0,0,9,9,44,1,0.5,,,,,,,,,,,
,,,,,,,ANT_images/none.png,ANT_images/incong_l.png,0.25,e,0.1,0,0.5,point,2020-10-01_14h42.57.361,ANT,2020.1.3,Win32,60,,,,,,e,1,0,10,10,4,1,1.6,1.514135,,,,,,,,,,
,,,,,,,ANT_images/center.png,ANT_images/cong_r.png,0.25,i,1.4,0.1,1.9,point,2020-10-01_14h42.57.361,ANT,2020.1.3,Win32,60,,,,,,,0,0,11,11,15,1,0.3,,,,,,,,,,,
,,,,,,,ANT_images/double.png,ANT_images/cong_r.png,0.25,i,1.3,0.1,1.8,point,2020-10-01_14h42.57.361,ANT,2020.1.3,Win32,60,,,,,,,0,0,12,12,27,1,0.4,,,,,,,,,,,
,,,,,,,ANT_images/up.png,ANT_images/incong_r.png,0.25,i,0.9,0.1,1.4,point,2020-10-01_14h42.57.361,ANT,2020.1.3,Win32,60,,,,,,,0,0,13,13,41,1,0.8,,,,,,,,,,,
,,,,,,,ANT_images/up.png,ANT_images/cong_r.png,0.25,i,1.4,0.1,1.9,point,2020-10-01_14h42.57.361,ANT,2020.1.3,Win32,60,,,,,,,0,0,14,14,39,1,0.3,,,,,,,,,,,
,,,,,,,ANT_images/double.png,ANT_images/incong_r.png,-0.25,i,1.6,0.1,2.1,point,2020-10-01_14h42.57.361,ANT,2020.1.3,Win32,60,,,,,,,0,0,15,15,35,1,0.1,,,,,,,,,,,
,,,,,,,ANT_images/up.png,ANT_images/neu_l.png,0.25,e,1.4,0.1,1.9,point,2020-10-01_14h42.57.361,ANT,2020.1.3,Win32,60,,,,,,,0,0,16,16,36,1,0.3,,,,,,,,,,,
,,,,,,,ANT_images/up.png,ANT_images/incong_l.png,0.25,e,0.5,0.1,1,point,2020-10-01_14h42.57.361,ANT,2020.1.3,Win32,60,,,,,,,0,0,17,17,40,1,1.2,,,,,,,,,,,
,,,,,,,ANT_images/up.png,ANT_images/cong_l.png,0.25,e,1.5,0.1,2,point,2020-10-01_14h42.57.361,ANT,2020.1.3,Win32,60,,,,,,,0,0,18,18,38,1,0.2,,,,,,,,,,,
,,,,,,,ANT_images/center.png,ANT_images/cong_l.png,-0.25,e,1.5,0.1,2,point,2020-10-01_14h42.57.361,ANT,2020.1.3,Win32,60,,,,,,,0,0,19,19,20,1,0.2,,,,,,,,,,,
,,,,,,,ANT_images/double.png,ANT_images/neu_l.png,-0.25,e,0.5,0.1,1,point,2020-10-01_14h42.57.361,ANT,2020.1.3,Win32,60,,,,,,,0,0,20,20,30,1,1.2,,,,,,,,,,,
,,,,,,,ANT_images/center.png,ANT_images/neu_r.png,-0.25,i,0.7,0.1,1.2,point,2020-10-01_14h42.57.361,ANT,2020.1.3,Win32,60,,,,,,,0,0,21,21,19,1,1,,,,,,,,,,,
,,,,,,,ANT_images/double.png,ANT_images/cong_r.png,-0.25,i,1.1,0.1,1.6,point,2020-10-01_14h42.57.361,ANT,2020.1.3,Win32,60,,,,,,,0,0,22,22,33,1,0.6,,,,,,,,,,,
,,,,,,,ANT_images/down.png,ANT_images/cong_r.png,-0.25,i,0.4,0.1,0.9,point,2020-10-01_14h42.57.361,ANT,2020.1.3,Win32,60,,,,,,,0,0,23,23,45,1,1.3,,,,,,,,,,,
,,,,,,,ANT_images/down.png,ANT_images/incong_r.png,-0.25,i,1,0.1,1.5,point,2020-10-01_14h42.57.361,ANT,2020.1.3,Win32,60,,,,,,,0,0,24,24,47,1,0.7,,,,,,,,,,,
,,,,,,,ANT_images/double.png,ANT_images/incong_l.png,0.25,e,1,0.1,1.5,point,2020-10-01_14h42.57.361,ANT,2020.1.3,Win32,60,,,,,,,0,0,25,25,28,1,0.7,,,,,,,,,,,
,,,,,,,ANT_images/center.png,ANT_images/incong_l.png,-0.25,e,1.3,0.1,1.8,point,2020-10-01_14h42.57.361,ANT,2020.1.3,Win32,60,,,,,,,0,0,26,26,22,1,0.4,,,,,,,,,,,
,,,,,,,ANT_images/down.png,ANT_images/neu_r.png,-0.25,i,0.6,0.1,1.1,point,2020-10-01_14h42.57.361,ANT,2020.1.3,Win32,60,,,,,,,0,0,27,27,43,1,1.1,,,,,,,,,,,
,,,,,,,ANT_images/double.png,ANT_images/neu_l.png,0.25,e,0.6,0.1,1.1,point,2020-10-01_14h42.57.361,ANT,2020.1.3,Win32,60,,,,,,,0,0,28,28,24,1,1.1,,,,,,,,,,,
,,,,,,,ANT_images/none.png,ANT_images/neu_l.png,-0.25,e,0.1,0,0.5,point,2020-10-01_14h42.57.361,ANT,2020.1.3,Win32,60,,,,,,e,1,0,29,29,6,1,1.6,1.494235,,,,,,,,,,
,,,,,,,ANT_images/none.png,ANT_images/incong_r.png,-0.25,i,0.1,0,0.5,point,2020-10-01_14h42.57.361,ANT,2020.1.3,Win32,60,,,,,,i,1,0,30,30,11,1,1.6,1.484675,,,,,,,,,,
,,,,,,,ANT_images/none.png,ANT_images/incong_r.png,0.25,i,0.1,0,0.5,point,2020-10-01_14h42.57.361,ANT,2020.1.3,Win32,60,,,,,,i,1,0,31,31,5,1,1.6,1.434895,,,,,,,,,,
,,,,,,,ANT_images/none.png,ANT_images/neu_l.png,0.25,e,0.1,0,0.5,point,2020-10-01_14h42.57.361,ANT,2020.1.3,Win32,60,,,,,,e,1,0,32,32,0,1,1.6,1.383535,,,,,,,,,,
,,,,,,,ANT_images/down.png,ANT_images/incong_l.png,-0.25,e,1.3,0.1,1.8,point,2020-10-01_14h42.57.361,ANT,2020.1.3,Win32,60,,,,,,,0,0,33,33,46,1,0.4,,,,,,,,,,,
,,,,,,,ANT_images/none.png,ANT_images/cong_l.png,-0.25,e,0.1,0,0.5,point,2020-10-01_14h42.57.361,ANT,2020.1.3,Win32,60,,,,,,e,1,0,34,34,8,1,1.6,1.39239,,,,,,,,,,
,,,,,,,ANT_images/none.png,ANT_images/neu_r.png,-0.25,i,0.1,0,0.5,point,2020-10-01_14h42.57.361,ANT,2020.1.3,Win32,60,,,,,,i,1,0,35,35,7,1,1.6,1.383625,,,,,,,,,,
,,,,,,,ANT_images/center.png,ANT_images/neu_l.png,0.25,e,1.1,0.1,1.6,point,2020-10-01_14h42.57.361,ANT,2020.1.3,Win32,60,,,,,,,0,0,36,36,12,1,0.6,,,,,,,,,,,
,,,,,,,ANT_images/double.png,ANT_images/incong_l.png,-0.25,e,1.5,0.1,2,point,2020-10-01_14h42.57.361,ANT,2020.1.3,Win32,60,,,,,,,0,0,37,37,34,1,0.2,,,,,,,,,,,
,,,,,,,ANT_images/down.png,ANT_images/neu_l.png,-0.25,e,0.8,0.1,1.3,point,2020-10-01_14h42.57.361,ANT,2020.1.3,Win32,60,,,,,,,0,0,38,38,42,1,0.9,,,,,,,,,,,
,,,,,,,ANT_images/none.png,ANT_images/cong_r.png,0.25,i,0.1,0,0.5,point,2020-10-01_14h42.57.361,ANT,2020.1.3,Win32,60,,,,,,i,1,0,39,39,3,1,1.6,1.27718,,,,,,,,,,
,,,,,,,ANT_images/double.png,ANT_images/neu_r.png,0.25,i,1.2,0.1,1.7,point,2020-10-01_14h42.57.361,ANT,2020.1.3,Win32,60,,,,,,,0,0,40,40,25,1,0.5,,,,,,,,,,,
,,,,,,,ANT_images/center.png,ANT_images/incong_r.png,-0.25,i,0.9,0.1,1.4,point,2020-10-01_14h42.57.361,ANT,2020.1.3,Win32,60,,,,,,,0,0,41,41,23,1,0.8,,,,,,,,,,,
,,,,,,,ANT_images/none.png,ANT_images/incong_l.png,-0.25,e,0.1,0,0.5,point,2020-10-01_14h42.57.361,ANT,2020.1.3,Win32,60,,,,,,e,1,0,42,42,10,1,1.6,1.386105,,,,,,,,,,
,,,,,,,ANT_images/center.png,ANT_images/cong_l.png,0.25,e,1.2,0.1,1.7,point,2020-10-01_14h42.57.361,ANT,2020.1.3,Win32,60,,,,,,,0,0,43,43,14,1,0.5,,,,,,,,,,,
,,,,,,,ANT_images/double.png,ANT_images/incong_r.png,0.25,i,0.9,0.1,1.4,point,2020-10-01_14h42.57.361,ANT,2020.1.3,Win32,60,,,,,,,0,0,44,44,29,1,0.8,,,,,,,,,,,
,,,,,,,ANT_images/center.png,ANT_images/neu_r.png,0.25,i,1,0.1,1.5,point,2020-10-01_14h42.57.361,ANT,2020.1.3,Win32,60,,,,,,,0,0,45,45,13,1,0.7,,,,,,,,,,,
,,,,,,,ANT_images/none.png,ANT_images/cong_r.png,-0.25,i,0.1,0,0.5,point,2020-10-01_14h42.57.361,ANT,2020.1.3,Win32,60,,,,,,i,1,0,46,46,9,1,1.6,1.40198,,,,,,,,,,
,,,,,,,ANT_images/center.png,ANT_images/cong_r.png,-0.25,i,1.6,0.1,2.1,point,2020-10-01_14h42.57.361,ANT,2020.1.3,Win32,60,,,,,,,0,0,47,47,21,1,0.1,,,,,,,,,,,
,,,,,,,ANT_images/center.png,ANT_images/incong_r.png,-0.25,i,0.9,0.1,1.4,point,2020-10-01_14h42.57.361,ANT,2020.1.3,Win32,60,,,,,,,0,1,0,48,23,1,0.8,,,,,,,,,,,
,,,,,,,ANT_images/up.png,ANT_images/cong_l.png,0.25,e,1.5,0.1,2,point,2020-10-01_14h42.57.361,ANT,2020.1.3,Win32,60,,,,,,,0,1,1,49,38,1,0.2,,,,,,,,,,,
,,,,,,,ANT_images/down.png,ANT_images/incong_r.png,-0.25,i,1,0.1,1.5,point,2020-10-01_14h42.57.361,ANT,2020.1.3,Win32,60,,,,,,,0,1,2,50,47,1,0.7,,,,,,,,,,,
,,,,,,,ANT_images/none.png,ANT_images/neu_l.png,-0.25,e,0.1,0,0.5,point,2020-10-01_14h42.57.361,ANT,2020.1.3,Win32,60,,,,,,e,1,1,3,51,6,1,1.6,1.326805,,,,,,,,,,
,,,,,,,ANT_images/none.png,ANT_images/neu_r.png,0.25,i,0.1,0,0.5,point,2020-10-01_14h42.57.361,ANT,2020.1.3,Win32,60,,,,,,i,1,1,4,52,1,1,1.6,1.212285,,,,,,,,,,
,,,,,,,ANT_images/double.png,ANT_images/neu_r.png,0.25,i,1.2,0.1,1.7,point,2020-10-01_14h42.57.361,ANT,2020.1.3,Win32,60,,,,,,,0,1,5,53,25,1,0.5,,,,,,,,,,,
,,,,,,,ANT_images/none.png,ANT_images/neu_l.png,0.25,e,0.1,0,0.5,point,2020-10-01_14h42.57.361,ANT,2020.1.3,Win32,60,,,,,,e,1,1,6,54,0,1,1.6,1.30874,,,,,,,,,,
,,,,,,,ANT_images/down.png,ANT_images/neu_l.png,-0.25,e,0.8,0.1,1.3,point,2020-10-01_14h42.57.361,ANT,2020.1.3,Win32,60,,,,,,,0,1,7,55,42,1,0.9,,,,,,,,,,,
,,,,,,,ANT_images/double.png,ANT_images/neu_r.png,-0.25,i,0.7,0.1,1.2,point,2020-10-01_14h42.57.361,ANT,2020.1.3,Win32,60,,,,,,,0,1,8,56,31,1,1,,,,,,,,,,,
,,,,,,,ANT_images/double.png,ANT_images/neu_l.png,-0.25,e,0.5,0.1,1,point,2020-10-01_14h42.57.361,ANT,2020.1.3,Win32,60,,,,,,,0,1,9,57,30,1,1.2,,,,,,,,,,,
,,,,,,,ANT_images/double.png,ANT_images/incong_r.png,0.25,i,0.9,0.1,1.4,point,2020-10-01_14h42.57.361,ANT,2020.1.3,Win32,60,,,,,,,0,1,10,58,29,1,0.8,,,,,,,,,,,
,,,,,,,ANT_images/double.png,ANT_images/neu_l.png,0.25,e,0.6,0.1,1.1,point,2020-10-01_14h42.57.361,ANT,2020.1.3,Win32,60,,,,,,,0,1,11,59,24,1,1.1,,,,,,,,,,,
,,,,,,,ANT_images/up.png,ANT_images/incong_l.png,0.25,e,0.5,0.1,1,point,2020-10-01_14h42.57.361,ANT,2020.1.3,Win32,60,,,,,,,0,1,12,60,40,1,1.2,,,,,,,,,,,
,,,,,,,ANT_images/none.png,ANT_images/incong_l.png,-0.25,e,0.1,0,0.5,point,2020-10-01_14h42.57.361,ANT,2020.1.3,Win32,60,,,,,,e,1,1,13,61,10,1,1.6,1.55069,,,,,,,,,,
,,,,,,,ANT_images/center.png,ANT_images/incong_r.png,0.25,i,0.4,0.1,0.9,point,2020-10-01_14h42.57.361,ANT,2020.1.3,Win32,60,,,,,,,0,1,14,62,17,1,1.3,,,,,,,,,,,
,,,,,,,ANT_images/up.png,ANT_images/cong_r.png,0.25,i,1.4,0.1,1.9,point,2020-10-01_14h42.57.361,ANT,2020.1.3,Win32,60,,,,,,,0,1,15,63,39,1,0.3,,,,,,,,,,,
,,,,,,,ANT_images/none.png,ANT_images/neu_r.png,-0.25,i,0.1,0,0.5,point,2020-10-01_14h42.57.361,ANT,2020.1.3,Win32,60,,,,,,,0,1,16,64,7,1,1.6,,,,,,,,,,,
,,,,,,,ANT_images/center.png,ANT_images/cong_l.png,0.25,e,1.2,0.1,1.7,point,2020-10-01_14h42.57.361,ANT,2020.1.3,Win32,60,,,,,,,0,1,17,65,14,1,0.5,,,,,,,,,,,
,,,,,,,ANT_images/double.png,ANT_images/cong_r.png,0.25,i,1.3,0.1,1.8,point,2020-10-01_14h42.57.361,ANT,2020.1.3,Win32,60,,,,,,,0,1,18,66,27,1,0.4,,,,,,,,,,,
,,,,,,,ANT_images/double.png,ANT_images/cong_l.png,-0.25,e,0.4,0.1,0.9,point,2020-10-01_14h42.57.361,ANT,2020.1.3,Win32,60,,,,,,,0,1,19,67,32,1,1.3,,,,,,,,,,,
,,,,,,,ANT_images/up.png,ANT_images/incong_r.png,0.25,i,0.9,0.1,1.4,point,2020-10-01_14h42.57.361,ANT,2020.1.3,Win32,60,,,,,,,0,1,20,68,41,1,0.8,,,,,,,,,,,
,,,,,,,ANT_images/up.png,ANT_images/neu_l.png,0.25,e,1.4,0.1,1.9,point,2020-10-01_14h42.57.361,ANT,2020.1.3,Win32,60,,,,,,,0,1,21,69,36,1,0.3,,,,,,,,,,,
,,,,,,,ANT_images/center.png,ANT_images/cong_r.png,-0.25,i,1.6,0.1,2.1,point,2020-10-01_14h42.57.361,ANT,2020.1.3,Win32,60,,,,,,,0,1,22,70,21,1,0.1,,,,,,,,,,,
,,,,,,,ANT_images/none.png,ANT_images/cong_r.png,0.25,i,0.1,0,0.5,point,2020-10-01_14h42.57.361,ANT,2020.1.3,Win32,60,,,,,,,0,1,23,71,3,1,1.6,,,,,,,,,,,
,,,,,,,ANT_images/center.png,ANT_images/neu_l.png,-0.25,e,0.8,0.1,1.3,point,2020-10-01_14h42.57.361,ANT,2020.1.3,Win32,60,,,,,,,0,1,24,72,18,1,0.9,,,,,,,,,,,
,,,,,,,ANT_images/none.png,ANT_images/incong_r.png,-0.25,i,0.1,0,0.5,point,2020-10-01_14h42.57.361,ANT,2020.1.3,Win32,60,,,,,,i,1,1,25,73,11,1,1.6,1.524545,,,,,,,,,,
,,,,,,,ANT_images/down.png,ANT_images/neu_r.png,-0.25,i,0.6,0.1,1.1,point,2020-10-01_14h42.57.361,ANT,2020.1.3,Win32,60,,,,,,,0,1,26,74,43,1,1.1,,,,,,,,,,,
,,,,,,,ANT_images/up.png,ANT_images/neu_r.png,0.25,i,0.8,0.1,1.3,point,2020-10-01_14h42.57.361,ANT,2020.1.3,Win32,60,,,,,,,0,1,27,75,37,1,0.9,,,,,,,,,,,
,,,,,,,ANT_images/down.png,ANT_images/cong_r.png,-0.25,i,0.4,0.1,0.9,point,2020-10-01_14h42.57.361,ANT,2020.1.3,Win32,60,,,,,,,0,1,28,76,45,1,1.3,,,,,,,,,,,
,,,,,,,ANT_images/none.png,ANT_images/cong_l.png,0.25,e,0.1,0,0.5,point,2020-10-01_14h42.57.361,ANT,2020.1.3,Win32,60,,,,,,e,1,1,29,77,2,1,1.6,1.47561,,,,,,,,,,
,,,,,,,ANT_images/none.png,ANT_images/cong_r.png,-0.25,i,0.1,0,0.5,point,2020-10-01_14h42.57.361,ANT,2020.1.3,Win32,60,,,,,,,0,1,30,78,9,1,1.6,,,,,,,,,,,
,,,,,,,ANT_images/center.png,ANT_images/neu_l.png,0.25,e,1.1,0.1,1.6,point,2020-10-01_14h42.57.361,ANT,2020.1.3,Win32,60,,,,,,,0,1,31,79,12,1,0.6,,,,,,,,,,,
,,,,,,,ANT_images/center.png,ANT_images/cong_r.png,0.25,i,1.4,0.1,1.9,point,2020-10-01_14h42.57.361,ANT,2020.1.3,Win32,60,,,,,,,0,1,32,80,15,1,0.3,,,,,,,,,,,
,,,,,,,ANT_images/none.png,ANT_images/incong_l.png,0.25,e,0.1,0,0.5,point,2020-10-01_14h42.57.361,ANT,2020.1.3,Win32,60,,,,,,e,1,1,33,81,4,1,1.6,1.48532,,,,,,,,,,
,,,,,,,ANT_images/center.png,ANT_images/incong_l.png,0.25,e,0.5,0.1,1,point,2020-10-01_14h42.57.361,ANT,2020.1.3,Win32,60,,,,,,,0,1,34,82,16,1,1.2,,,,,,,,,,,
,,,,,,,ANT_images/double.png,ANT_images/incong_l.png,-0.25,e,1.5,0.1,2,point,2020-10-01_14h42.57.361,ANT,2020.1.3,Win32,60,,,,,,,0,1,35,83,34,1,0.2,,,,,,,,,,,
,,,,,,,ANT_images/double.png,ANT_images/incong_r.png,-0.25,i,1.6,0.1,2.1,point,2020-10-01_14h42.57.361,ANT,2020.1.3,Win32,60,,,,,,,0,1,36,84,35,1,0.1,,,,,,,,,,,
,,,,,,,ANT_images/none.png,ANT_images/incong_r.png,0.25,i,0.1,0,0.5,point,2020-10-01_14h42.57.361,ANT,2020.1.3,Win32,60,,,,,,i,1,1,37,85,5,1,1.6,1.326285,,,,,,,,,,
,,,,,,,ANT_images/down.png,ANT_images/incong_l.png,-0.25,e,1.3,0.1,1.8,point,2020-10-01_14h42.57.361,ANT,2020.1.3,Win32,60,,,,,,,0,1,38,86,46,1,0.4,,,,,,,,,,,
,,,,,,,ANT_images/center.png,ANT_images/neu_r.png,0.25,i,1,0.1,1.5,point,2020-10-01_14h42.57.361,ANT,2020.1.3,Win32,60,,,,,,,0,1,39,87,13,1,0.7,,,,,,,,,,,
,,,,,,,ANT_images/down.png,ANT_images/cong_l.png,-0.25,e,1.2,0.1,1.7,point,2020-10-01_14h42.57.361,ANT,2020.1.3,Win32,60,,,,,,,0,1,40,88,44,1,0.5,,,,,,,,,,,
,,,,,,,ANT_images/double.png,ANT_images/incong_l.png,0.25,e,1,0.1,1.5,point,2020-10-01_14h42.57.361,ANT,2020.1.3,Win32,60,,,,,,,0,1,41,89,28,1,0.7,,,,,,,,,,,
,,,,,,,ANT_images/none.png,ANT_images/cong_l.png,-0.25,e,0.1,0,0.5,point,2020-10-01_14h42.57.361,ANT,2020.1.3,Win32,60,,,,,,e,1,1,42,90,8,1,1.6,1.424205,,,,,,,,,,
,,,,,,,ANT_images/center.png,ANT_images/incong_l.png,-0.25,e,1.3,0.1,1.8,point,2020-10-01_14h42.57.361,ANT,2020.1.3,Win32,60,,,,,,,0,1,43,91,22,1,0.4,,,,,,,,,,,
,,,,,,,ANT_images/double.png,ANT_images/cong_l.png,0.25,e,0.6,0.1,1.1,point,2020-10-01_14h42.57.361,ANT,2020.1.3,Win32,60,,,,,,,0,1,44,92,26,1,1.1,,,,,,,,,,,
,,,,,,,ANT_images/center.png,ANT_images/neu_r.png,-0.25,i,0.7,0.1,1.2,point,2020-10-01_14h42.57.361,ANT,2020.1.3,Win32,60,,,,,,,0,1,45,93,19,1,1,,,,,,,,,,,
,,,,,,,ANT_images/center.png,ANT_images/cong_l.png,-0.25,e,1.5,0.1,2,point,2020-10-01_14h42.57.361,ANT,2020.1.3,Win32,60,,,,,,,0,1,46,94,20,1,0.2,,,,,,,,,,,
,,,,,,,ANT_images/double.png,ANT_images/cong_r.png,-0.25,i,1.1,0.1,1.6,point,2020-10-01_14h42.57.361,ANT,2020.1.3,Win32,60,,,,,,,0,1,47,95,33,1,0.6,,,,,,,,,,,
,,,,,,,,,,,,,,point,2020-10-01_14h42.57.361,ANT,2020.1.3,Win32,60,,,,,,,,,,,,,,,0,0,0,0,1,,,,,
,,,,,,,ANT_images/none.png,ANT_images/incong_r.png,-0.25,i,0.1,0,0.5,point,2020-10-01_14h42.57.361,ANT,2020.1.3,Win32,60,,,,,,i,1,0,0,0,11,1,1.6,1.53708,,,,,,,,,,
,,,,,,,ANT_images/double.png,ANT_images/cong_l.png,0.25,e,0.6,0.1,1.1,point,2020-10-01_14h42.57.361,ANT,2020.1.3,Win32,60,,,,,,,0,0,1,1,26,1,1.1,,,,,,,,,,,
,,,,,,,ANT_images/up.png,ANT_images/incong_l.png,0.25,e,0.5,0.1,1,point,2020-10-01_14h42.57.361,ANT,2020.1.3,Win32,60,,,,,,,0,0,2,2,40,1,1.2,,,,,,,,,,,
,,,,,,,ANT_images/center.png,ANT_images/cong_r.png,0.25,i,1.4,0.1,1.9,point,2020-10-01_14h42.57.361,ANT,2020.1.3,Win32,60,,,,,,,0,0,3,3,15,1,0.3,,,,,,,,,,,
,,,,,,,ANT_images/none.png,ANT_images/cong_l.png,-0.25,e,0.1,0,0.5,point,2020-10-01_14h42.57.361,ANT,2020.1.3,Win32,60,,,,,,e,1,0,4,4,8,1,1.6,1.134585,,,,,,,,,,
,,,,,,,ANT_images/center.png,ANT_images/incong_r.png,0.25,i,0.4,0.1,0.9,point,2020-10-01_14h42.57.361,ANT,2020.1.3,Win32,60,,,,,,i,1,0,5,5,17,1,1.3,1.52856,,,,,,,,,,
,,,,,,,ANT_images/center.png,ANT_images/neu_r.png,0.25,i,1,0.1,1.5,point,2020-10-01_14h42.57.361,ANT,2020.1.3,Win32,60,,,,,,,0,0,6,6,13,1,0.7,,,,,,,,,,,
,,,,,,,ANT_images/none.png,ANT_images/incong_l.png,0.25,e,0.1,0,0.5,point,2020-10-01_14h42.57.361,ANT,2020.1.3,Win32,60,,,,,,e,1,0,7,7,4,1,1.6,1.005385,,,,,,,,,,
,,,,,,,ANT_images/up.png,ANT_images/neu_r.png,0.25,i,0.8,0.1,1.3,point,2020-10-01_14h42.57.361,ANT,2020.1.3,Win32,60,,,,,,,0,0,8,8,37,1,0.9,,,,,,,,,,,
,,,,,,,ANT_images/none.png,ANT_images/cong_r.png,0.25,i,0.1,0,0.5,point,2020-10-01_14h42.57.361,ANT,2020.1.3,Win32,60,,,,,,i,1,0,9,9,3,1,1.6,0.97317,,,,,,,,,,
,,,,,,,ANT_images/double.png,ANT_images/neu_l.png,0.25,e,0.6,0.1,1.1,point,2020-10-01_14h42.57.361,ANT,2020.1.3,Win32,60,,,,,,e,1,0,10,10,24,1,1.1,1.56564,,,,,,,,,,
,,,,,,,ANT_images/center.png,ANT_images/incong_r.png,-0.25,i,0.9,0.1,1.4,point,2020-10-01_14h42.57.361,ANT,2020.1.3,Win32,60,,,,,,,0,0,11,11,23,1,0.8,,,,,,,,,,,
,,,,,,,ANT_images/double.png,ANT_images/cong_l.png,-0.25,e,0.4,0.1,0.9,point,2020-10-01_14h42.57.361,ANT,2020.1.3,Win32,60,,,,,,e,1,0,12,12,32,1,1.3,1.55902,,,,,,,,,,
,,,,,,,ANT_images/down.png,ANT_images/neu_r.png,-0.25,i,0.6,0.1,1.1,point,2020-10-01_14h42.57.361,ANT,2020.1.3,Win32,60,,,,,,,0,0,13,13,43,1,1.1,,,,,,,,,,,
,,,,,,,ANT_images/center.png,ANT_images/neu_l.png,0.25,e,1.1,0.1,1.6,point,2020-10-01_14h42.57.361,ANT,2020.1.3,Win32,60,,,,,,,0,0,14,14,12,1,0.6,,,,,,,,,,,
,,,,,,,ANT_images/none.png,ANT_images/neu_l.png,0.25,e,0.1,0,0.5,point,2020-10-01_14h42.57.361,ANT,2020.1.3,Win32,60,,,,,,e,1,0,15,15,0,1,1.6,1.09723,,,,,,,,,,
,,,,,,,ANT_images/down.png,ANT_images/incong_r.png,-0.25,i,1,0.1,1.5,point,2020-10-01_14h42.57.361,ANT,2020.1.3,Win32,60,,,,,,,0,0,16,16,47,1,0.7,,,,,,,,,,,
,,,,,,,ANT_images/up.png,ANT_images/neu_l.png,0.25,e,1.4,0.1,1.9,point,2020-10-01_14h42.57.361,ANT,2020.1.3,Win32,60,,,,,,,0,0,17,17,36,1,0.3,,,,,,,,,,,
,,,,,,,ANT_images/double.png,ANT_images/neu_l.png,-0.25,e,0.5,0.1,1,point,2020-10-01_14h42.57.361,ANT,2020.1.3,Win32,60,,,,,,,0,0,18,18,30,1,1.2,,,,,,,,,,,
,,,,,,,ANT_images/none.png,ANT_images/neu_l.png,-0.25,e,0.1,0,0.5,point,2020-10-01_14h42.57.361,ANT,2020.1.3,Win32,60,,,,,,e,1,0,19,19,6,1,1.6,1.05587,,,,,,,,,,
,,,,,,,ANT_images/double.png,ANT_images/incong_r.png,-0.25,i,1.6,0.1,2.1,point,2020-10-01_14h42.57.361,ANT,2020.1.3,Win32,60,,,,,,,0,0,20,20,35,1,0.1,,,,,,,,,,,
,,,,,,,ANT_images/center.png,ANT_images/neu_r.png,-0.25,i,0.7,0.1,1.2,point,2020-10-01_14h42.57.361,ANT,2020.1.3,Win32,60,,,,,,,0,0,21,21,19,1,1,,,,,,,,,,,
,,,,,,,ANT_images/double.png,ANT_images/neu_r.png,0.25,i,1.2,0.1,1.7,point,2020-10-01_14h42.57.361,ANT,2020.1.3,Win32,60,,,,,,,0,0,22,22,25,1,0.5,,,,,,,,,,,
,,,,,,,ANT_images/center.png,ANT_images/cong_r.png,-0.25,i,1.6,0.1,2.1,point,2020-10-01_14h42.57.361,ANT,2020.1.3,Win32,60,,,,,,,0,0,23,23,21,1,0.1,,,,,,,,,,,
,,,,,,,ANT_images/double.png,ANT_images/neu_r.png,-0.25,i,0.7,0.1,1.2,point,2020-10-01_14h42.57.361,ANT,2020.1.3,Win32,60,,,,,,,0,0,24,24,31,1,1,,,,,,,,,,,
,,,,,,,ANT_images/double.png,ANT_images/incong_l.png,-0.25,e,1.5,0.1,2,point,2020-10-01_14h42.57.361,ANT,2020.1.3,Win32,60,,,,,,,0,0,25,25,34,1,0.2,,,,,,,,,,,
,,,,,,,ANT_images/up.png,ANT_images/incong_r.png,0.25,i,0.9,0.1,1.4,point,2020-10-01_14h42.57.361,ANT,2020.1.3,Win32,60,,,,,,,0,0,26,26,41,1,0.8,,,,,,,,,,,
,,,,,,,ANT_images/down.png,ANT_images/cong_l.png,-0.25,e,1.2,0.1,1.7,point,2020-10-01_14h42.57.361,ANT,2020.1.3,Win32,60,,,,,,,0,0,27,27,44,1,0.5,,,,,,,,,,,
,,,,,,,ANT_images/double.png,ANT_images/incong_l.png,0.25,e,1,0.1,1.5,point,2020-10-01_14h42.57.361,ANT,2020.1.3,Win32,60,,,,,,,0,0,28,28,28,1,0.7,,,,,,,,,,,
,,,,,,,ANT_images/none.png,ANT_images/neu_r.png,0.25,i,0.1,0,0.5,point,2020-10-01_14h42.57.361,ANT,2020.1.3,Win32,60,,,,,,i,1,0,29,29,1,1,1.6,1.04516,,,,,,,,,,
,,,,,,,ANT_images/center.png,ANT_images/incong_l.png,-0.25,e,1.3,0.1,1.8,point,2020-10-01_14h42.57.361,ANT,2020.1.3,Win32,60,,,,,,,0,0,30,30,22,1,0.4,,,,,,,,,,,
,,,,,,,ANT_images/down.png,ANT_images/incong_l.png,-0.25,e,1.3,0.1,1.8,point,2020-10-01_14h42.57.361,ANT,2020.1.3,Win32,60,,,,,,,0,0,31,31,46,1,0.4,,,,,,,,,,,
,,,,,,,ANT_images/center.png,ANT_images/neu_l.png,-0.25,e,0.8,0.1,1.3,point,2020-10-01_14h42.57.361,ANT,2020.1.3,Win32,60,,,,,,,0,0,32,32,18,1,0.9,,,,,,,,,,,
,,,,,,,ANT_images/center.png,ANT_images/cong_l.png,-0.25,e,1.5,0.1,2,point,2020-10-01_14h42.57.361,ANT,2020.1.3,Win32,60,,,,,,,0,0,33,33,20,1,0.2,,,,,,,,,,,
,,,,,,,ANT_images/none.png,ANT_images/incong_r.png,0.25,i,0.1,0,0.5,point,2020-10-01_14h42.57.361,ANT,2020.1.3,Win32,60,,,,,,i,1,0,34,34,5,1,1.6,1.13335,,,,,,,,,,
,,,,,,,ANT_images/up.png,ANT_images/cong_r.png,0.25,i,1.4,0.1,1.9,point,2020-10-01_14h42.57.361,ANT,2020.1.3,Win32,60,,,,,,,0,0,35,35,39,1,0.3,,,,,,,,,,,
,,,,,,,ANT_images/down.png,ANT_images/neu_l.png,-0.25,e,0.8,0.1,1.3,point,2020-10-01_14h42.57.361,ANT,2020.1.3,Win32,60,,,,,,,0,0,36,36,42,1,0.9,,,,,,,,,,,
,,,,,,,ANT_images/none.png,ANT_images/neu_r.png,-0.25,i,0.1,0,0.5,point,2020-10-01_14h42.57.361,ANT,2020.1.3,Win32,60,,,,,,i,1,0,37,37,7,1,1.6,1.13552,,,,,,,,,,
,,,,,,,ANT_images/center.png,ANT_images/incong_l.png,0.25,e,0.5,0.1,1,point,2020-10-01_14h42.57.361,ANT,2020.1.3,Win32,60,,,,,,e,1,0,38,38,16,1,1.2,1.579265,,,,,,,,,,
,,,,,,,ANT_images/double.png,ANT_images/cong_r.png,-0.25,i,1.1,0.1,1.6,point,2020-10-01_14h42.57.361,ANT,2020.1.3,Win32,60,,,,,,,0,0,39,39,33,1,0.6,,,,,,,,,,,
,,,,,,,ANT_images/none.png,ANT_images/cong_l.png,0.25,e,0.1,0,0.5,point,2020-10-01_14h42.57.361,ANT,2020.1.3,Win32,60,,,,,,e,1,0,40,40,2,1,1.6,0.974695,,,,,,,,,,
,,,,,,,ANT_images/double.png,ANT_images/cong_r.png,0.25,i,1.3,0.1,1.8,point,2020-10-01_14h42.57.361,ANT,2020.1.3,Win32,60,,,,,,,0,0,41,41,27,1,0.4,,,,,,,,,,,
,,,,,,,ANT_images/down.png,ANT_images/cong_r.png,-0.25,i,0.4,0.1,0.9,point,2020-10-01_14h42.57.361,ANT,2020.1.3,Win32,60,,,,,,i,1,0,42,42,45,1,1.3,1.572485,,,,,,,,,,
,,,,,,,ANT_images/none.png,ANT_images/cong_r.png,-0.25,i,0.1,0,0.5,point,2020-10-01_14h42.57.361,ANT,2020.1.3,Win32,60,,,,,,i,1,0,43,43,9,1,1.6,1.06961,,,,,,,,,,
,,,,,,,ANT_images/double.png,ANT_images/incong_r.png,0.25,i,0.9,0.1,1.4,point,2020-10-01_14h42.57.361,ANT,2020.1.3,Win32,60,,,,,,,0,0,44,44,29,1,0.8,,,,,,,,,,,
,,,,,,,ANT_images/up.png,ANT_images/cong_l.png,0.25,e,1.5,0.1,2,point,2020-10-01_14h42.57.361,ANT,2020.1.3,Win32,60,,,,,,,0,0,45,45,38,1,0.2,,,,,,,,,,,
,,,,,,,ANT_images/none.png,ANT_images/incong_l.png,-0.25,e,0.1,0,0.5,point,2020-10-01_14h42.57.361,ANT,2020.1.3,Win32,60,,,,,,,0,0,46,46,10,1,1.6,,,,,,,,,,,
,,,,,,,ANT_images/center.png,ANT_images/cong_l.png,0.25,e,1.2,0.1,1.7,point,2020-10-01_14h42.57.361,ANT,2020.1.3,Win32,60,,,,,,,0,0,47,47,14,1,0.5,,,,,,,,,,,
,,,,,,,ANT_images/up.png,ANT_images/neu_l.png,0.25,e,1.4,0.1,1.9,point,2020-10-01_14h42.57.361,ANT,2020.1.3,Win32,60,,,,,,,0,1,0,48,36,1,0.3,,,,,,,,,,,
,,,,,,,ANT_images/double.png,ANT_images/incong_r.png,-0.25,i,1.6,0.1,2.1,point,2020-10-01_14h42.57.361,ANT,2020.1.3,Win32,60,,,,,,,0,1,1,49,35,1,0.1,,,,,,,,,,,
,,,,,,,ANT_images/double.png,ANT_images/incong_l.png,0.25,e,1,0.1,1.5,point,2020-10-01_14h42.57.361,ANT,2020.1.3,Win32,60,,,,,,,0,1,2,50,28,1,0.7,,,,,,,,,,,
,,,,,,,ANT_images/center.png,ANT_images/neu_l.png,-0.25,e,0.8,0.1,1.3,point,2020-10-01_14h42.57.361,ANT,2020.1.3,Win32,60,,,,,,,0,1,3,51,18,1,0.9,,,,,,,,,,,
,,,,,,,ANT_images/double.png,ANT_images/neu_l.png,0.25,e,0.6,0.1,1.1,point,2020-10-01_14h42.57.361,ANT,2020.1.3,Win32,60,,,,,,,0,1,4,52,24,1,1.1,,,,,,,,,,,
,,,,,,,ANT_images/center.png,ANT_images/cong_l.png,0.25,e,1.2,0.1,1.7,point,2020-10-01_14h42.57.361,ANT,2020.1.3,Win32,60,,,,,,,0,1,5,53,14,1,0.5,,,,,,,,,,,
,,,,,,,ANT_images/up.png,ANT_images/incong_r.png,0.25,i,0.9,0.1,1.4,point,2020-10-01_14h42.57.361,ANT,2020.1.3,Win32,60,,,,,,,0,1,6,54,41,1,0.8,,,,,,,,,,,
,,,,,,,ANT_images/none.png,ANT_images/cong_r.png,-0.25,i,0.1,0,0.5,point,2020-10-01_14h42.57.361,ANT,2020.1.3,Win32,60,,,,,,i,1,1,7,55,9,1,1.6,1.10231,,,,,,,,,,
,,,,,,,ANT_images/up.png,ANT_images/cong_l.png,0.25,e,1.5,0.1,2,point,2020-10-01_14h42.57.361,ANT,2020.1.3,Win32,60,,,,,,,0,1,8,56,38,1,0.2,,,,,,,,,,,
,,,,,,,ANT_images/down.png,ANT_images/neu_r.png,-0.25,i,0.6,0.1,1.1,point,2020-10-01_14h42.57.361,ANT,2020.1.3,Win32,60,,,,,,,0,1,9,57,43,1,1.1,,,,,,,,,,,
,,,,,,,ANT_images/center.png,ANT_images/incong_r.png,0.25,i,0.4,0.1,0.9,point,2020-10-01_14h42.57.361,ANT,2020.1.3,Win32,60,,,,,,i,1,1,10,58,17,1,1.3,1.5424,,,,,,,,,,
,,,,,,,ANT_images/double.png,ANT_images/cong_l.png,-0.25,e,0.4,0.1,0.9,point,2020-10-01_14h42.57.361,ANT,2020.1.3,Win32,60,,,,,,e,1,1,11,59,32,1,1.3,1.541695,,,,,,,,,,
,,,,,,,ANT_images/none.png,ANT_images/cong_l.png,0.25,e,0.1,0,0.5,point,2020-10-01_14h42.57.361,ANT,2020.1.3,Win32,60,,,,,,e,1,1,12,60,2,1,1.6,1.03784,,,,,,,,,,
,,,,,,,ANT_images/double.png,ANT_images/neu_r.png,0.25,i,1.2,0.1,1.7,point,2020-10-01_14h42.57.361,ANT,2020.1.3,Win32,60,,,,,,,0,1,13,61,25,1,0.5,,,,,,,,,,,
,,,,,,,ANT_images/none.png,ANT_images/cong_r.png,0.25,i,0.1,0,0.5,point,2020-10-01_14h42.57.361,ANT,2020.1.3,Win32,60,,,,,,i,1,1,14,62,3,1,1.6,0.994275,,,,,,,,,,
,,,,,,,ANT_images/center.png,ANT_images/neu_r.png,0.25,i,1,0.1,1.5,point,2020-10-01_14h42.57.361,ANT,2020.1.3,Win32,60,,,,,,,0,1,15,63,13,1,0.7,,,,,,,,,,,
,,,,,,,ANT_images/none.png,ANT_images/neu_l.png,0.25,e,0.1,0,0.5,point,2020-10-01_14h42.57.361,ANT,2020.1.3,Win32,60,,,,,,e,1,1,16,64,0,1,1.6,0.92294,,,,,,,,,,
,,,,,,,ANT_images/up.png,ANT_images/incong_l.png,0.25,e,0.5,0.1,1,point,2020-10-01_14h42.57.361,ANT,2020.1.3,Win32,60,,,,,,,0,1,17,65,40,1,1.2,,,,,,,,,,,
,,,,,,,ANT_images/down.png,ANT_images/cong_l.png,-0.25,e,1.2,0.1,1.7,point,2020-10-01_14h42.57.361,ANT,2020.1.3,Win32,60,,,,,,,0,1,18,66,44,1,0.5,,,,,,,,,,,
,,,,,,,ANT_images/none.png,ANT_images/incong_r.png,0.25,i,0.1,0,0.5,point,2020-10-01_14h42.57.361,ANT,2020.1.3,Win32,60,,,,,,i,1,1,19,67,5,1,1.6,1.08629,,,,,,,,,,
,,,,,,,ANT_images/double.png,ANT_images/neu_l.png,-0.25,e,0.5,0.1,1,point,2020-10-01_14h42.57.361,ANT,2020.1.3,Win32,60,,,,,,,0,1,20,68,30,1,1.2,,,,,,,,,,,
,,,,,,,ANT_images/center.png,ANT_images/incong_r.png,-0.25,i,0.9,0.1,1.4,point,2020-10-01_14h42.57.361,ANT,2020.1.3,Win32,60,,,,,,,0,1,21,69,23,1,0.8,,,,,,,,,,,
,,,,,,,ANT_images/center.png,ANT_images/neu_r.png,-0.25,i,0.7,0.1,1.2,point,2020-10-01_14h42.57.361,ANT,2020.1.3,Win32,60,,,,,,,0,1,22,70,19,1,1,,,,,,,,,,,
,,,,,,,ANT_images/center.png,ANT_images/cong_l.png,-0.25,e,1.5,0.1,2,point,2020-10-01_14h42.57.361,ANT,2020.1.3,Win32,60,,,,,,,0,1,23,71,20,1,0.2,,,,,,,,,,,
,,,,,,,ANT_images/double.png,ANT_images/incong_r.png,0.25,i,0.9,0.1,1.4,point,2020-10-01_14h42.57.361,ANT,2020.1.3,Win32,60,,,,,,,0,1,24,72,29,1,0.8,,,,,,,,,,,
,,,,,,,ANT_images/double.png,ANT_images/cong_r.png,0.25,i,1.3,0.1,1.8,point,2020-10-01_14h42.57.361,ANT,2020.1.3,Win32,60,,,,,,,0,1,25,73,27,1,0.4,,,,,,,,,,,
,,,,,,,ANT_images/double.png,ANT_images/cong_l.png,0.25,e,0.6,0.1,1.1,point,2020-10-01_14h42.57.361,ANT,2020.1.3,Win32,60,,,,,,,0,1,26,74,26,1,1.1,,,,,,,,,,,
,,,,,,,ANT_images/center.png,ANT_images/cong_r.png,0.25,i,1.4,0.1,1.9,point,2020-10-01_14h42.57.361,ANT,2020.1.3,Win32,60,,,,,,,0,1,27,75,15,1,0.3,,,,,,,,,,,
,,,,,,,ANT_images/none.png,ANT_images/neu_l.png,-0.25,e,0.1,0,0.5,point,2020-10-01_14h42.57.361,ANT,2020.1.3,Win32,60,,,,,,e,1,1,28,76,6,1,1.6,1.16154,,,,,,,,,,
,,,,,,,ANT_images/none.png,ANT_images/incong_l.png,-0.25,e,0.1,0,0.5,point,2020-10-01_14h42.57.361,ANT,2020.1.3,Win32,60,,,,,,e,1,1,29,77,10,1,1.6,1.24587,,,,,,,,,,
,,,,,,,ANT_images/up.png,ANT_images/cong_r.png,0.25,i,1.4,0.1,1.9,point,2020-10-01_14h42.57.361,ANT,2020.1.3,Win32,60,,,,,,,0,1,30,78,39,1,0.3,,,,,,,,,,,
,,,,,,,ANT_images/down.png,ANT_images/incong_r.png,-0.25,i,1,0.1,1.5,point,2020-10-01_14h42.57.361,ANT,2020.1.3,Win32,60,,,,,,,0,1,31,79,47,1,0.7,,,,,,,,,,,
,,,,,,,ANT_images/down.png,ANT_images/cong_r.png,-0.25,i,0.4,0.1,0.9,point,2020-10-01_14h42.57.361,ANT,2020.1.3,Win32,60,,,,,,i,1,1,32,80,45,1,1.3,1.448185,,,,,,,,,,
,,,,,,,ANT_images/double.png,ANT_images/incong_l.png,-0.25,e,1.5,0.1,2,point,2020-10-01_14h42.57.361,ANT,2020.1.3,Win32,60,,,,,,,0,1,33,81,34,1,0.2,,,,,,,,,,,
,,,,,,,ANT_images/none.png,ANT_images/neu_r.png,0.25,i,0.1,0,0.5,point,2020-10-01_14h42.57.361,ANT,2020.1.3,Win32,60,,,,,,i,1,1,34,82,1,1,1.6,1.092045,,,,,,,,,,
,,,,,,,ANT_images/center.png,ANT_images/neu_l.png,0.25,e,1.1,0.1,1.6,point,2020-10-01_14h42.57.361,ANT,2020.1.3,Win32,60,,,,,,,0,1,35,83,12,1,0.6,,,,,,,,,,,
,,,,,,,ANT_images/none.png,ANT_images/incong_l.png,0.25,e,0.1,0,0.5,point,2020-10-01_14h42.57.361,ANT,2020.1.3,Win32,60,,,,,,e,1,1,36,84,4,1,1.6,1.0923,,,,,,,,,,
,,,,,,,ANT_images/down.png,ANT_images/incong_l.png,-0.25,e,1.3,0.1,1.8,point,2020-10-01_14h42.57.361,ANT,2020.1.3,Win32,60,,,,,,,0,1,37,85,46,1,0.4,,,,,,,,,,,
,,,,,,,ANT_images/none.png,ANT_images/incong_r.png,-0.25,i,0.1,0,0.5,point,2020-10-01_14h42.57.361,ANT,2020.1.3,Win32,60,,,,,,i,1,1,38,86,11,1,1.6,1.204305,,,,,,,,,,
,,,,,,,ANT_images/center.png,ANT_images/incong_l.png,0.25,e,0.5,0.1,1,point,2020-10-01_14h42.57.361,ANT,2020.1.3,Win32,60,,,,,,,0,1,39,87,16,1,1.2,,,,,,,,,,,
,,,,,,,ANT_images/center.png,ANT_images/cong_r.png,-0.25,i,1.6,0.1,2.1,point,2020-10-01_14h42.57.361,ANT,2020.1.3,Win32,60,,,,,,,0,1,40,88,21,1,0.1,,,,,,,,,,,
,,,,,,,ANT_images/double.png,ANT_images/neu_r.png,-0.25,i,0.7,0.1,1.2,point,2020-10-01_14h42.57.361,ANT,2020.1.3,Win32,60,,,,,,,0,1,41,89,31,1,1,,,,,,,,,,,
,,,,,,,ANT_images/center.png,ANT_images/incong_l.png,-0.25,e,1.3,0.1,1.8,point,2020-10-01_14h42.57.361,ANT,2020.1.3,Win32,60,,,,,,,0,1,42,90,22,1,0.4,,,,,,,,,,,
,,,,,,,ANT_images/none.png,ANT_images/neu_r.png,-0.25,i,0.1,0,0.5,point,2020-10-01_14h42.57.361,ANT,2020.1.3,Win32,60,,,,,,i,1,1,43,91,7,1,1.6,1.16046,,,,,,,,,,
,,,,,,,ANT_images/none.png,ANT_images/cong_l.png,-0.25,e,0.1,0,0.5,point,2020-10-01_14h42.57.361,ANT,2020.1.3,Win32,60,,,,,,e,1,1,44,92,8,1,1.6,1.04449,,,,,,,,,,
,,,,,,,ANT_images/up.png,ANT_images/neu_r.png,0.25,i,0.8,0.1,1.3,point,2020-10-01_14h42.57.361,ANT,2020.1.3,Win32,60,,,,,,,0,1,45,93,37,1,0.9,,,,,,,,,,,
,,,,,,,ANT_images/double.png,ANT_images/cong_r.png,-0.25,i,1.1,0.1,1.6,point,2020-10-01_14h42.57.361,ANT,2020.1.3,Win32,60,,,,,,,0,1,46,94,33,1,0.6,,,,,,,,,,,
,,,,,,,ANT_images/down.png,ANT_images/neu_l.png,-0.25,e,0.8,0.1,1.3,point,2020-10-01_14h42.57.361,ANT,2020.1.3,Win32,60,,,,,,,0,1,47,95,42,1,0.9,,,,,,,,,,,
,,,,,,,ANT_images/none.png,ANT_images/cong_l.png,0.25,e,0.1,0,0.5,point,2020-10-01_14h42.57.361,ANT,2020.1.3,Win32,60,,,,,,e,1,,,,,,1.6,1.312035,,,,,,0,0,0,2,1
,,,,,,,ANT_images/double.png,ANT_images/neu_r.png,-0.25,i,0.7,0.1,1.2,point,2020-10-01_14h42.57.361,ANT,2020.1.3,Win32,60,,,,,,,0,,,,,,1,,,,,,,0,1,1,31,1
,,,,,,,ANT_images/none.png,ANT_images/incong_r.png,0.25,i,0.1,0,0.5,point,2020-10-01_14h42.57.361,ANT,2020.1.3,Win32,60,,,,,,i,1,,,,,,1.6,1.23911,,,,,,0,2,2,5,1
,,,,,,,ANT_images/up.png,ANT_images/neu_r.png,0.25,i,0.8,0.1,1.3,point,2020-10-01_14h42.57.361,ANT,2020.1.3,Win32,60,,,,,,,0,,,,,,0.9,,,,,,,0,3,3,37,1
,,,,,,,ANT_images/center.png,ANT_images/neu_r.png,0.25,i,1,0.1,1.5,point,2020-10-01_14h42.57.361,ANT,2020.1.3,Win32,60,,,,,,,0,,,,,,0.7,,,,,,,0,4,4,13,1
,,,,,,,ANT_images/down.png,ANT_images/cong_l.png,-0.25,e,1.2,0.1,1.7,point,2020-10-01_14h42.57.361,ANT,2020.1.3,Win32,60,,,,,,,0,,,,,,0.5,,,,,,,0,5,5,44,1
,,,,,,,ANT_images/center.png,ANT_images/cong_l.png,0.25,e,1.2,0.1,1.7,point,2020-10-01_14h42.57.361,ANT,2020.1.3,Win32,60,,,,,,,0,,,,,,0.5,,,,,,,0,6,6,14,1
,,,,,,,ANT_images/double.png,ANT_images/cong_l.png,-0.25,e,0.4,0.1,0.9,point,2020-10-01_14h42.57.361,ANT,2020.1.3,Win32,60,,,,,,,0,,,,,,1.3,,,,,,,0,7,7,32,1
,,,,,,,ANT_images/down.png,ANT_images/incong_r.png,-0.25,i,1,0.1,1.5,point,2020-10-01_14h42.57.361,ANT,2020.1.3,Win32,60,,,,,,,0,,,,,,0.7,,,,,,,0,8,8,47,1
,,,,,,,ANT_images/none.png,ANT_images/incong_l.png,-0.25,e,0.1,0,0.5,point,2020-10-01_14h42.57.361,ANT,2020.1.3,Win32,60,,,,,,e,1,,,,,,1.6,1.21237,,,,,,0,9,9,10,1
,,,,,,,ANT_images/center.png,ANT_images/cong_r.png,-0.25,i,1.6,0.1,2.1,point,2020-10-01_14h42.57.361,ANT,2020.1.3,Win32,60,,,,,,,0,,,,,,0.1,,,,,,,0,10,10,21,1
,,,,,,,ANT_images/up.png,ANT_images/cong_l.png,0.25,e,1.5,0.1,2,point,2020-10-01_14h42.57.361,ANT,2020.1.3,Win32,60,,,,,,,0,,,,,,0.2,,,,,,,0,11,11,38,1
,,,,,,,ANT_images/double.png,ANT_images/neu_l.png,0.25,e,0.6,0.1,1.1,point,2020-10-01_14h42.57.361,ANT,2020.1.3,Win32,60,,,,,,,0,,,,,,1.1,,,,,,,0,12,12,24,1
,,,,,,,ANT_images/down.png,ANT_images/neu_r.png,-0.25,i,0.6,0.1,1.1,point,2020-10-01_14h42.57.361,ANT,2020.1.3,Win32,60,,,,,,,0,,,,,,1.1,,,,,,,0,13,13,43,1
,,,,,,,ANT_images/none.png,ANT_images/neu_r.png,0.25,i,0.1,0,0.5,point,2020-10-01_14h42.57.361,ANT,2020.1.3,Win32,60,,,,,,i,1,,,,,,1.6,1.050275,,,,,,0,14,14,1,1
,,,,,,,ANT_images/up.png,ANT_images/neu_l.png,0.25,e,1.4,0.1,1.9,point,2020-10-01_14h42.57.361,ANT,2020.1.3,Win32,60,,,,,,,0,,,,,,0.3,,,,,,,0,15,15,36,1
,,,,,,,ANT_images/center.png,ANT_images/cong_r.png,0.25,i,1.4,0.1,1.9,point,2020-10-01_14h42.57.361,ANT,2020.1.3,Win32,60,,,,,,,0,,,,,,0.3,,,,,,,0,16,16,15,1
,,,,,,,ANT_images/double.png,ANT_images/cong_l.png,0.25,e,0.6,0.1,1.1,point,2020-10-01_14h42.57.361,ANT,2020.1.3,Win32,60,,,,,,e,1,,,,,,1.1,1.534365,,,,,,0,17,17,26,1
,,,,,,,ANT_images/none.png,ANT_images/neu_l.png,-0.25,e,0.1,0,0.5,point,2020-10-01_14h42.57.361,ANT,2020.1.3,Win32,60,,,,,,e,1,,,,,,1.6,1.063415,,,,,,0,18,18,6,1
,,,,,,,ANT_images/center.png,ANT_images/incong_l.png,-0.25,e,1.3,0.1,1.8,point,2020-10-01_14h42.57.361,ANT,2020.1.3,Win32,60,,,,,,,0,,,,,,0.4,,,,,,,0,19,19,22,1
,,,,,,,ANT_images/double.png,ANT_images/neu_r.png,0.25,i,1.2,0.1,1.7,point,2020-10-01_14h42.57.361,ANT,2020.1.3,Win32,60,,,,,,,0,,,,,,0.5,,,,,,,0,20,20,25,1
,,,,,,,ANT_images/up.png,ANT_images/incong_r.png,0.25,i,0.9,0.1,1.4,point,2020-10-01_14h42.57.361,ANT,2020.1.3,Win32,60,,,,,,,0,,,,,,0.8,,,,,,,0,21,21,41,1
,,,,,,,ANT_images/double.png,ANT_images/incong_l.png,-0.25,e,1.5,0.1,2,point,2020-10-01_14h42.57.361,ANT,2020.1.3,Win32,60,,,,,,,0,,,,,,0.2,,,,,,,0,22,22,34,1
,,,,,,,ANT_images/double.png,ANT_images/cong_r.png,-0.25,i,1.1,0.1,1.6,point,2020-10-01_14h42.57.361,ANT,2020.1.3,Win32,60,,,,,,,0,,,,,,0.6,,,,,,,0,23,23,33,1
,,,,,,,ANT_images/up.png,ANT_images/incong_l.png,0.25,e,0.5,0.1,1,point,2020-10-01_14h42.57.361,ANT,2020.1.3,Win32,60,,,,,,,0,,,,,,1.2,,,,,,,0,24,24,40,1
,,,,,,,ANT_images/double.png,ANT_images/cong_r.png,0.25,i,1.3,0.1,1.8,point,2020-10-01_14h42.57.361,ANT,2020.1.3,Win32,60,,,,,,,0,,,,,,0.4,,,,,,,0,25,25,27,1
,,,,,,,ANT_images/none.png,ANT_images/neu_l.png,0.25,e,0.1,0,0.5,point,2020-10-01_14h42.57.361,ANT,2020.1.3,Win32,60,,,,,,e,1,,,,,,1.6,1.03553,,,,,,0,26,26,0,1
,,,,,,,ANT_images/center.png,ANT_images/incong_l.png,0.25,e,0.5,0.1,1,point,2020-10-01_14h42.57.361,ANT,2020.1.3,Win32,60,,,,,,e,1,,,,,,1.2,1.57903,,,,,,0,27,27,16,1
,,,,,,,ANT_images/center.png,ANT_images/neu_l.png,-0.25,e,0.8,0.1,1.3,point,2020-10-01_14h42.57.361,ANT,2020.1.3,Win32,60,,,,,,,0,,,,,,0.9,,,,,,,0,28,28,18,1
,,,,,,,ANT_images/none.png,ANT_images/cong_r.png,0.25,i,0.1,0,0.5,point,2020-10-01_14h42.57.361,ANT,2020.1.3,Win32,60,,,,,,i,1,,,,,,1.6,1.02565,,,,,,0,29,29,3,1
,,,,,,,ANT_images/none.png,ANT_images/neu_r.png,-0.25,i,0.1,0,0.5,point,2020-10-01_14h42.57.361,ANT,2020.1.3,Win32,60,,,,,,i,1,,,,,,1.6,1.05003,,,,,,0,30,30,7,1
,,,,,,,ANT_images/up.png,ANT_images/cong_r.png,0.25,i,1.4,0.1,1.9,point,2020-10-01_14h42.57.361,ANT,2020.1.3,Win32,60,,,,,,,0,,,,,,0.3,,,,,,,0,31,31,39,1
,,,,,,,ANT_images/center.png,ANT_images/incong_r.png,-0.25,i,0.9,0.1,1.4,point,2020-10-01_14h42.57.361,ANT,2020.1.3,Win32,60,,,,,,,0,,,,,,0.8,,,,,,,0,32,32,23,1
,,,,,,,ANT_images/double.png,ANT_images/incong_r.png,-0.25,i,1.6,0.1,2.1,point,2020-10-01_14h42.57.361,ANT,2020.1.3,Win32,60,,,,,,,0,,,,,,0.1,,,,,,,0,33,33,35,1
,,,,,,,ANT_images/center.png,ANT_images/cong_l.png,-0.25,e,1.5,0.1,2,point,2020-10-01_14h42.57.361,ANT,2020.1.3,Win32,60,,,,,,,0,,,,,,0.2,,,,,,,0,34,34,20,1
,,,,,,,ANT_images/down.png,ANT_images/neu_l.png,-0.25,e,0.8,0.1,1.3,point,2020-10-01_14h42.57.361,ANT,2020.1.3,Win32,60,,,,,,,0,,,,,,0.9,,,,,,,0,35,35,42,1
,,,,,,,ANT_images/double.png,ANT_images/incong_r.png,0.25,i,0.9,0.1,1.4,point,2020-10-01_14h42.57.361,ANT,2020.1.3,Win32,60,,,,,,,0,,,,,,0.8,,,,,,,0,36,36,29,1
,,,,,,,ANT_images/none.png,ANT_images/incong_l.png,0.25,e,0.1,0,0.5,point,2020-10-01_14h42.57.361,ANT,2020.1.3,Win32,60,,,,,,e,1,,,,,,1.6,1.10775,,,,,,0,37,37,4,1
,,,,,,,ANT_images/down.png,ANT_images/cong_r.png,-0.25,i,0.4,0.1,0.9,point,2020-10-01_14h42.57.361,ANT,2020.1.3,Win32,60,,,,,,i,1,,,,,,1.3,1.440825,,,,,,0,38,38,45,1
,,,,,,,ANT_images/center.png,ANT_images/incong_r.png,0.25,i,0.4,0.1,0.9,point,2020-10-01_14h42.57.361,ANT,2020.1.3,Win32,60,,,,,,,0,,,,,,1.3,,,,,,,0,39,39,17,1
,,,,,,,ANT_images/none.png,ANT_images/cong_l.png,-0.25,e,0.1,0,0.5,point,2020-10-01_14h42.57.361,ANT,2020.1.3,Win32,60,,,,,,e,1,,,,,,1.6,1.065005,,,,,,0,40,40,8,1
,,,,,,,ANT_images/down.png,ANT_images/incong_l.png,-0.25,e,1.3,0.1,1.8,point,2020-10-01_14h42.57.361,ANT,2020.1.3,Win32,60,,,,,,,0,,,,,,0.4,,,,,,,0,41,41,46,1
,,,,,,,ANT_images/none.png,ANT_images/incong_r.png,-0.25,i,0.1,0,0.5,point,2020-10-01_14h42.57.361,ANT,2020.1.3,Win32,60,,,,,,i,1,,,,,,1.6,1.278165,,,,,,0,42,42,11,1
,,,,,,,ANT_images/double.png,ANT_images/neu_l.png,-0.25,e,0.5,0.1,1,point,2020-10-01_14h42.57.361,ANT,2020.1.3,Win32,60,,,,,,,0,,,,,,1.2,,,,,,,0,43,43,30,1
,,,,,,,ANT_images/center.png,ANT_images/neu_r.png,-0.25,i,0.7,0.1,1.2,point,2020-10-01_14h42.57.361,ANT,2020.1.3,Win32,60,,,,,,,0,,,,,,1,,,,,,,0,44,44,19,1
,,,,,,,ANT_images/none.png,ANT_images/cong_r.png,-0.25,i,0.1,0,0.5,point,2020-10-01_14h42.57.361,ANT,2020.1.3,Win32,60,,,,,,i,1,,,,,,1.6,1.112855,,,,,,0,45,45,9,1
,,,,,,,ANT_images/double.png,ANT_images/incong_l.png,0.25,e,1,0.1,1.5,point,2020-10-01_14h42.57.361,ANT,2020.1.3,Win32,60,,,,,,,0,,,,,,0.7,,,,,,,0,46,46,28,1
,,,,,,,ANT_images/center.png,ANT_images/neu_l.png,0.25,e,1.1,0.1,1.6,point,2020-10-01_14h42.57.361,ANT,2020.1.3,Win32,60,,,,,,,0,,,,,,0.6,,,,,,,0,47,47,12,1
,,,,,,,ANT_images/double.png,ANT_images/cong_l.png,-0.25,e,0.4,0.1,0.9,point,2020-10-01_14h42.57.361,ANT,2020.1.3,Win32,60,,,,,,e,1,,,,,,1.3,1.489295,,,,,,1,0,48,32,1
,,,,,,,ANT_images/center.png,ANT_images/incong_r.png,0.25,i,0.4,0.1,0.9,point,2020-10-01_14h42.57.361,ANT,2020.1.3,Win32,60,,,,,,i,1,,,,,,1.3,1.52055,,,,,,1,1,49,17,1
,,,,,,,ANT_images/none.png,ANT_images/cong_l.png,0.25,e,0.1,0,0.5,point,2020-10-01_14h42.57.361,ANT,2020.1.3,Win32,60,,,,,,e,1,,,,,,1.6,0.992535,,,,,,1,2,50,2,1
,,,,,,,ANT_images/center.png,ANT_images/neu_r.png,-0.25,i,0.7,0.1,1.2,point,2020-10-01_14h42.57.361,ANT,2020.1.3,Win32,60,,,,,,,0,,,,,,1,,,,,,,1,3,51,19,1
,,,,,,,ANT_images/up.png,ANT_images/cong_l.png,0.25,e,1.5,0.1,2,point,2020-10-01_14h42.57.361,ANT,2020.1.3,Win32,60,,,,,,,0,,,,,,0.2,,,,,,,1,4,52,38,1
,,,,,,,ANT_images/none.png,ANT_images/incong_l.png,-0.25,e,0.1,0,0.5,point,2020-10-01_14h42.57.361,ANT,2020.1.3,Win32,60,,,,,,e,1,,,,,,1.6,1.354955,,,,,,1,5,53,10,1
,,,,,,,ANT_images/down.png,ANT_images/cong_l.png,-0.25,e,1.2,0.1,1.7,point,2020-10-01_14h42.57.361,ANT,2020.1.3,Win32,60,,,,,,,0,,,,,,0.5,,,,,,,1,6,54,44,1
,,,,,,,ANT_images/center.png,ANT_images/cong_r.png,0.25,i,1.4,0.1,1.9,point,2020-10-01_14h42.57.361,ANT,2020.1.3,Win32,60,,,,,,,0,,,,,,0.3,,,,,,,1,7,55,15,1
,,,,,,,ANT_images/none.png,ANT_images/incong_l.png,0.25,e,0.1,0,0.5,point,2020-10-01_14h42.57.361,ANT,2020.1.3,Win32,60,,,,,,e,1,,,,,,1.6,1.047605,,,,,,1,8,56,4,1
,,,,,,,ANT_images/up.png,ANT_images/neu_r.png,0.25,i,0.8,0.1,1.3,point,2020-10-01_14h42.57.361,ANT,2020.1.3,Win32,60,,,,,,,0,,,,,,0.9,,,,,,,1,9,57,37,1
,,,,,,,ANT_images/none.png,ANT_images/neu_r.png,-0.25,i,0.1,0,0.5,point,2020-10-01_14h42.57.361,ANT,2020.1.3,Win32,60,,,,,,i,1,,,,,,1.6,1.019865,,,,,,1,10,58,7,1
,,,,,,,ANT_images/none.png,ANT_images/neu_l.png,0.25,e,0.1,0,0.5,point,2020-10-01_14h42.57.361,ANT,2020.1.3,Win32,60,,,,,,e,1,,,,,,1.6,0.95607,,,,,,1,11,59,0,1
,,,,,,,ANT_images/double.png,ANT_images/cong_r.png,-0.25,i,1.1,0.1,1.6,point,2020-10-01_14h42.57.361,ANT,2020.1.3,Win32,60,,,,,,,0,,,,,,0.6,,,,,,,1,12,60,33,1
,,,,,,,ANT_images/center.png,ANT_images/cong_l.png,0.25,e,1.2,0.1,1.7,point,2020-10-01_14h42.57.361,ANT,2020.1.3,Win32,60,,,,,,,0,,,,,,0.5,,,,,,,1,13,61,14,1
,,,,,,,ANT_images/none.png,ANT_images/neu_r.png,0.25,i,0.1,0,0.5,point,2020-10-01_14h42.57.361,ANT,2020.1.3,Win32,60,,,,,,i,1,,,,,,1.6,0.986985,,,,,,1,14,62,1,1
,,,,,,,ANT_images/up.png,ANT_images/incong_l.png,0.25,e,0.5,0.1,1,point,2020-10-01_14h42.57.361,ANT,2020.1.3,Win32,60,,,,,,e,1,,,,,,1.2,1.478175,,,,,,1,15,63,40,1
,,,,,,,ANT_images/none.png,ANT_images/cong_l.png,-0.25,e,0.1,0,0.5,point,2020-10-01_14h42.57.361,ANT,2020.1.3,Win32,60,,,,,,e,1,,,,,,1.6,1.05707,,,,,,1,16,64,8,1
,,,,,,,ANT_images/none.png,ANT_images/incong_r.png,-0.25,i,0.1,0,0.5,point,2020-10-01_14h42.57.361,ANT,2020.1.3,Win32,60,,,,,,i,1,,,,,,1.6,1.153845,,,,,,1,17,65,11,1
,,,,,,,ANT_images/double.png,ANT_images/neu_l.png,-0.25,e,0.5,0.1,1,point,2020-10-01_14h42.57.361,ANT,2020.1.3,Win32,60,,,,,,e,1,,,,,,1.2,1.484355,,,,,,1,18,66,30,1
,,,,,,,ANT_images/double.png,ANT_images/incong_l.png,-0.25,e,1.5,0.1,2,point,2020-10-01_14h42.57.361,ANT,2020.1.3,Win32,60,,,,,,,0,,,,,,0.2,,,,,,,1,19,67,34,1
,,,,,,,ANT_images/none.png,ANT_images/neu_l.png,-0.25,e,0.1,0,0.5,point,2020-10-01_14h42.57.361,ANT,2020.1.3,Win32,60,,,,,,e,1,,,,,,1.6,1.037135,,,,,,1,20,68,6,1
,,,,,,,ANT_images/none.png,ANT_images/cong_r.png,0.25,i,0.1,0,0.5,point,2020-10-01_14h42.57.361,ANT,2020.1.3,Win32,60,,,,,,i,1,,,,,,1.6,1.087525,,,,,,1,21,69,3,1
,,,,,,,ANT_images/double.png,ANT_images/incong_r.png,0.25,i,0.9,0.1,1.4,point,2020-10-01_14h42.57.361,ANT,2020.1.3,Win32,60,,,,,,,0,,,,,,0.8,,,,,,,1,22,70,29,1
,,,,,,,ANT_images/center.png,ANT_images/cong_l.png,-0.25,e,1.5,0.1,2,point,2020-10-01_14h42.57.361,ANT,2020.1.3,Win32,60,,,,,,,0,,,,,,0.2,,,,,,,1,23,71,20,1
,,,,,,,ANT_images/center.png,ANT_images/neu_r.png,0.25,i,1,0.1,1.5,point,2020-10-01_14h42.57.361,ANT,2020.1.3,Win32,60,,,,,,,0,,,,,,0.7,,,,,,,1,24,72,13,1
,,,,,,,ANT_images/up.png,ANT_images/neu_l.png,0.25,e,1.4,0.1,1.9,point,2020-10-01_14h42.57.361,ANT,2020.1.3,Win32,60,,,,,,,0,,,,,,0.3,,,,,,,1,25,73,36,1
,,,,,,,ANT_images/double.png,ANT_images/neu_r.png,-0.25,i,0.7,0.1,1.2,point,2020-10-01_14h42.57.361,ANT,2020.1.3,Win32,60,,,,,,,0,,,,,,1,,,,,,,1,26,74,31,1
,,,,,,,ANT_images/center.png,ANT_images/neu_l.png,-0.25,e,0.8,0.1,1.3,point,2020-10-01_14h42.57.361,ANT,2020.1.3,Win32,60,,,,,,,0,,,,,,0.9,,,,,,,1,27,75,18,1
,,,,,,,ANT_images/center.png,ANT_images/incong_r.png,-0.25,i,0.9,0.1,1.4,point,2020-10-01_14h42.57.361,ANT,2020.1.3,Win32,60,,,,,,,0,,,,,,0.8,,,,,,,1,28,76,23,1
,,,,,,,ANT_images/center.png,ANT_images/neu_l.png,0.25,e,1.1,0.1,1.6,point,2020-10-01_14h42.57.361,ANT,2020.1.3,Win32,60,,,,,,,0,,,,,,0.6,,,,,,,1,29,77,12,1
,,,,,,,ANT_images/up.png,ANT_images/incong_r.png,0.25,i,0.9,0.1,1.4,point,2020-10-01_14h42.57.361,ANT,2020.1.3,Win32,60,,,,,,,0,,,,,,0.8,,,,,,,1,30,78,41,1
,,,,,,,ANT_images/double.png,ANT_images/neu_l.png,0.25,e,0.6,0.1,1.1,point,2020-10-01_14h42.57.361,ANT,2020.1.3,Win32,60,,,,,,e,1,,,,,,1.1,1.595795,,,,,,1,31,79,24,1
,,,,,,,ANT_images/double.png,ANT_images/cong_r.png,0.25,i,1.3,0.1,1.8,point,2020-10-01_14h42.57.361,ANT,2020.1.3,Win32,60,,,,,,,0,,,,,,0.4,,,,,,,1,32,80,27,1
,,,,,,,ANT_images/none.png,ANT_images/incong_r.png,0.25,i,0.1,0,0.5,point,2020-10-01_14h42.57.361,ANT,2020.1.3,Win32,60,,,,,,i,1,,,,,,1.6,1.00921,,,,,,1,33,81,5,1
,,,,,,,ANT_images/double.png,ANT_images/incong_r.png,-0.25,i,1.6,0.1,2.1,point,2020-10-01_14h42.57.361,ANT,2020.1.3,Win32,60,,,,,,,0,,,,,,0.1,,,,,,,1,34,82,35,1
,,,,,,,ANT_images/center.png,ANT_images/cong_r.png,-0.25,i,1.6,0.1,2.1,point,2020-10-01_14h42.57.361,ANT,2020.1.3,Win32,60,,,,,,,0,,,,,,0.1,,,,,,,1,35,83,21,1
,,,,,,,ANT_images/double.png,ANT_images/neu_r.png,0.25,i,1.2,0.1,1.7,point,2020-10-01_14h42.57.361,ANT,2020.1.3,Win32,60,,,,,,,0,,,,,,0.5,,,,,,,1,36,84,25,1
,,,,,,,ANT_images/down.png,ANT_images/cong_r.png,-0.25,i,0.4,0.1,0.9,point,2020-10-01_14h42.57.361,ANT,2020.1.3,Win32,60,,,,,,i,1,,,,,,1.3,1.4671,,,,,,1,37,85,45,1
,,,,,,,ANT_images/down.png,ANT_images/incong_l.png,-0.25,e,1.3,0.1,1.8,point,2020-10-01_14h42.57.361,ANT,2020.1.3,Win32,60,,,,,,,0,,,,,,0.4,,,,,,,1,38,86,46,1
,,,,,,,ANT_images/center.png,ANT_images/incong_l.png,0.25,e,0.5,0.1,1,point,2020-10-01_14h42.57.361,ANT,2020.1.3,Win32,60,,,,,,e,1,,,,,,1.2,1.594785,,,,,,1,39,87,16,1
,,,,,,,ANT_images/up.png,ANT_images/cong_r.png,0.25,i,1.4,0.1,1.9,point,2020-10-01_14h42.57.361,ANT,2020.1.3,Win32,60,,,,,,,0,,,,,,0.3,,,,,,,1,40,88,39,1
,,,,,,,ANT_images/down.png,ANT_images/neu_r.png,-0.25,i,0.6,0.1,1.1,point,2020-10-01_14h42.57.361,ANT,2020.1.3,Win32,60,,,,,,,0,,,,,,1.1,,,,,,,1,41,89,43,1
,,,,,,,ANT_images/down.png,ANT_images/incong_r.png,-0.25,i,1,0.1,1.5,point,2020-10-01_14h42.57.361,ANT,2020.1.3,Win32,60,,,,,,,0,,,,,,0.7,,,,,,,1,42,90,47,1
,,,,,,,ANT_images/double.png,ANT_images/incong_l.png,0.25,e,1,0.1,1.5,point,2020-10-01_14h42.57.361,ANT,2020.1.3,Win32,60,,,,,,,0,,,,,,0.7,,,,,,,1,43,91,28,1
,,,,,,,ANT_images/center.png,ANT_images/incong_l.png,-0.25,e,1.3,0.1,1.8,point,2020-10-01_14h42.57.361,ANT,2020.1.3,Win32,60,,,,,,,0,,,,,,0.4,,,,,,,1,44,92,22,1
,,,,,,,ANT_images/down.png,ANT_images/neu_l.png,-0.25,e,0.8,0.1,1.3,point,2020-10-01_14h42.57.361,ANT,2020.1.3,Win32,60,,,,,,,0,,,,,,0.9,,,,,,,1,45,93,42,1
,,,,,,,ANT_images/none.png,ANT_images/cong_r.png,-0.25,i,0.1,0,0.5,point,2020-10-01_14h42.57.361,ANT,2020.1.3,Win32,60,,,,,,i,1,,,,,,1.6,1.051015,,,,,,1,46,94,9,1
,,,,,,,ANT_images/double.png,ANT_images/cong_l.png,0.25,e,0.6,0.1,1.1,point,2020-10-01_14h42.57.361,ANT,2020.1.3,Win32,60,,,,,,e,1,,,,,,1.1,1.57839,,,,,,1,47,95,26,1
